timestamp, acc_x, acc_y, acc_z, gyro_x, gyro_y, gyro_z
317205.0447032917, -0.000235, 0.005328, -0.047506, 0.004003, -0.027436, -0.106143
317205.05228304176, 0.005034, 0.006360, -0.037562, 0.022990, -0.023876, -0.096534
317205.0624958334, 0.004199, 0.004453, -0.018285, 0.034698, -0.032054, -0.092353
317205.07250316674, 0.001569, -0.000626, -0.005647, 0.042949, -0.056527, -0.092762
317205.0826780834, 0.001059, -0.001706, 0.003055, 0.048460, -0.084248, -0.103035
317205.0826780834, 0.001059, -0.001706, 0.003055, 0.048460, -0.084248, -0.103035
317205.0826780834, 0.001059, -0.001706, 0.003055, 0.048460, -0.084248, -0.103035
317205.0925587084, -0.005126, -0.000564, 0.007846, 0.046036, -0.101211, -0.115567
317205.1224297084, -0.002819, 0.009361, 0.004123, 0.012753, -0.100237, -0.126523
317205.1324815417, 0.000317, 0.010335, -0.001394, 0.002477, -0.087313, -0.129369
317205.1424281251, -0.002442, 0.009263, -0.009047, -0.006032, -0.064466, -0.135123
317205.15211529174, -0.006527, 0.009353, -0.013741, -0.009737, -0.049719, -0.139050
317205.1624419584, -0.005019, 0.009214, -0.016451, -0.007744, -0.026318, -0.139732
317205.1718051251, -0.001968, 0.010666, -0.015621, -0.006127, -0.022415, -0.138246
317205.18242300005, 0.003679, 0.013120, -0.009440, 0.005805, -0.029629, -0.127488
317205.1924844167, 0.011181, 0.012833, -0.003295, 0.016098, -0.045351, -0.115674
317205.20221475005, 0.017470, 0.008163, 0.000432, 0.024981, -0.059736, -0.105228
317205.20221475005, 0.017470, 0.008163, 0.000432, 0.024981, -0.059736, -0.105228
317205.2224722084, 0.016473, 0.011942, 0.015766, 0.025410, -0.098631, -0.087773
317205.2419540834, 0.007705, 0.008184, 0.027284, 0.016611, -0.113225, -0.078846
317205.25242225005, 0.008470, 0.007687, 0.027740, 0.014552, -0.110720, -0.085459
317205.2624203334, 0.003448, 0.002401, 0.023513, 0.017904, -0.101364, -0.102095
317205.2724451667, -0.000877, 0.001773, 0.017953, 0.017200, -0.095233, -0.105866
317205.2824797917, 0.000454, 0.004636, 0.019138, 0.017862, -0.078731, -0.112059
317205.2924827501, 0.002445, 0.006921, 0.024203, 0.003826, -0.061508, -0.112211
317205.3019693334, 0.004356, 0.005789, 0.034235, -0.010374, -0.055677, -0.109515
317205.3124325834, 0.008119, 0.003759, 0.040006, -0.029764, -0.060153, -0.101220
317205.3124325834, 0.008119, 0.003759, 0.040006, -0.029764, -0.060153, -0.101220
317205.3124325834, 0.008119, 0.003759, 0.040006, -0.029764, -0.060153, -0.101220
317205.3326666251, 0.005191, -0.006114, 0.038930, -0.042715, -0.079660, -0.099905
317205.3415824584, 0.000103, -0.009783, 0.036143, -0.044712, -0.088104, -0.109408
317205.3524703334, -0.003710, -0.009687, 0.033671, -0.048614, -0.092768, -0.119897
317205.3724815417, 0.002135, -0.011683, 0.019373, -0.045851, -0.095140, -0.133160
317205.3826637084, 0.005202, -0.008716, 0.014254, -0.039958, -0.103624, -0.129770
317205.3826637084, 0.005202, -0.008716, 0.014254, -0.039958, -0.103624, -0.129770
317205.3826637084, 0.005202, -0.008716, 0.014254, -0.039958, -0.103624, -0.129770
317205.3826637084, 0.005202, -0.008716, 0.014254, -0.039958, -0.103624, -0.129770
317205.3826637084, 0.005202, -0.008716, 0.014254, -0.039958, -0.103624, -0.129770
317205.3826637084, 0.005202, -0.008716, 0.014254, -0.039958, -0.103624, -0.129770
317205.3826637084, 0.005202, -0.008716, 0.014254, -0.039958, -0.103624, -0.129770
317205.3826637084, 0.005202, -0.008716, 0.014254, -0.039958, -0.103624, -0.129770
317205.3826637084, 0.005202, -0.008716, 0.014254, -0.039958, -0.103624, -0.129770
317205.45258529176, -0.010346, -0.037040, -0.007489, -0.025577, -0.048398, -0.080596
317205.49253512506, -0.003746, -0.048899, 0.018186, -0.058750, -0.084404, -0.090824
317205.5023557084, -0.006380, -0.048919, 0.010634, -0.064682, -0.074216, -0.089082
317205.5125197917, -0.009112, -0.047206, 0.004941, -0.062780, -0.053196, -0.085052
317205.5225764167, -0.005483, -0.050933, -0.002489, -0.046996, -0.027165, -0.080712
317205.5324485834, -0.000858, -0.055173, -0.002475, -0.021644, -0.015195, -0.074078
317205.5425492084, 0.001074, -0.051843, 0.007345, 0.003206, -0.019806, -0.070319
317205.5525807501, -0.001501, -0.048907, 0.019303, 0.019883, -0.033183, -0.067439
317205.56199504173, -0.003543, -0.046124, 0.033124, 0.028099, -0.044023, -0.065167
317205.57244491676, -0.002800, -0.046842, 0.045769, 0.024394, -0.057159, -0.061730
317205.58251766674, -0.000230, -0.047380, 0.052060, 0.018012, -0.069633, -0.065177
317205.59247875004, 0.000912, -0.047730, 0.052873, 0.011089, -0.080323, -0.074918
317205.6024859584, -0.001679, -0.044761, 0.053107, 0.000378, -0.090015, -0.084052
317205.6125228751, -0.003752, -0.039219, 0.050462, -0.009065, -0.100440, -0.095915
317205.6225439584, -0.006013, -0.030396, 0.048786, -0.018593, -0.108487, -0.102531
317205.6317798751, -0.006406, -0.022378, 0.044145, -0.032676, -0.110936, -0.109843
317205.6425431251, -0.007025, -0.015398, 0.035216, -0.041952, -0.100165, -0.111626
317205.65261541674, -0.007975, -0.010296, 0.024630, -0.051227, -0.081963, -0.106636
317205.66251562507, -0.007568, -0.005574, 0.015324, -0.052309, -0.047045, -0.098971
317205.6719192084, -0.013546, -0.002891, 0.012272, -0.046336, -0.012075, -0.093910
317205.6825309584, -0.024385, -0.001007, 0.016335, -0.036988, 0.013562, -0.092632
317205.69245275005, -0.032689, -0.002475, 0.028566, -0.026441, 0.016861, -0.099580
317205.70169579174, -0.043121, -0.001773, 0.047127, -0.021414, -0.001568, -0.108818
317205.70169579174, -0.043121, -0.001773, 0.047127, -0.021414, -0.001568, -0.108818
317205.70169579174, -0.043121, -0.001773, 0.047127, -0.021414, -0.001568, -0.108818
317205.71254612505, -0.057518, -0.002028, 0.067771, -0.022455, -0.036699, -0.127342
317205.7427273334, -0.096459, 0.003306, 0.091619, -0.086556, -0.131453, -0.234816
317205.75258216675, -0.099462, 0.008360, 0.091956, -0.128028, -0.157125, -0.265103
317205.7624433334, -0.098632, 0.013258, 0.087698, -0.175482, -0.186391, -0.290215
317205.7624433334, -0.098632, 0.013258, 0.087698, -0.175482, -0.186391, -0.290215
317205.7624433334, -0.098632, 0.013258, 0.087698, -0.175482, -0.186391, -0.290215
317205.79246087506, -0.102629, 0.007791, 0.027713, -0.266581, -0.199298, -0.366887
317205.8025462084, -0.108026, 0.001062, 0.009686, -0.280398, -0.168624, -0.398693
317205.82254441676, -0.123599, 0.003793, 0.005368, -0.303515, -0.112370, -0.431601
317205.8325056667, -0.133433, 0.003938, 0.006650, -0.295402, -0.096523, -0.441797
317205.84261904174, -0.136928, -0.003058, 0.008118, -0.273213, -0.090478, -0.458229
317205.8525349584, -0.135810, -0.015435, 0.012035, -0.243965, -0.100090, -0.476052
317205.8625257084, -0.133616, -0.028165, 0.021930, -0.212998, -0.119269, -0.497851
317205.87253541674, -0.136564, -0.035906, 0.034381, -0.192171, -0.135611, -0.527764
317205.8826014167, -0.143698, -0.036637, 0.049755, -0.182232, -0.152582, -0.554630
317205.8925199584, -0.143310, -0.038010, 0.066786, -0.184401, -0.170690, -0.583957
317205.9025436251, -0.144724, -0.040995, 0.088611, -0.215231, -0.186009, -0.616540
317205.9025436251, -0.144724, -0.040995, 0.088611, -0.215231, -0.186009, -0.616540
317205.9025436251, -0.144724, -0.040995, 0.088611, -0.215231, -0.186009, -0.616540
317205.9025436251, -0.144724, -0.040995, 0.088611, -0.215231, -0.186009, -0.616540
317205.9025436251, -0.144724, -0.040995, 0.088611, -0.215231, -0.186009, -0.616540
317205.9025436251, -0.144724, -0.040995, 0.088611, -0.215231, -0.186009, -0.616540
317205.9025436251, -0.144724, -0.040995, 0.088611, -0.215231, -0.186009, -0.616540
317205.9025436251, -0.144724, -0.040995, 0.088611, -0.215231, -0.186009, -0.616540
317205.9025436251, -0.144724, -0.040995, 0.088611, -0.215231, -0.186009, -0.616540
317205.91252287506, -0.142240, -0.044486, 0.113257, -0.281794, -0.206078, -0.645280
317206.00227779173, -0.068136, -0.160958, -0.064899, -0.976430, -0.363452, -0.773951
317206.0125317084, -0.085570, -0.190021, -0.076278, -0.986730, -0.191995, -0.855975
317206.0225790834, -0.071048, -0.211570, -0.081370, -0.975729, -0.048229, -0.930608
317206.03245929175, -0.035249, -0.231892, -0.067416, -0.953608, 0.018241, -0.982754
317206.0425372917, 0.021497, -0.242776, -0.036910, -0.942075, 0.052601, -1.004068
317206.0624532917, 0.116917, -0.241262, -0.039114, -1.002832, 0.225643, -0.922908
317206.0624532917, 0.116917, -0.241262, -0.039114, -1.002832, 0.225643, -0.922908
317206.07253716676, 0.105775, -0.247173, -0.054869, -1.057604, 0.332153, -0.887079
317206.0825140834, 0.064543, -0.242207, -0.027745, -1.114357, 0.355058, -0.867312
317206.1017394584, 0.031732, -0.259522, 0.000374, -1.179799, 0.394494, -0.832966
317206.1126663334, 0.037939, -0.274414, 0.013481, -1.281444, 0.125194, -0.760740
317206.12196554174, 0.033424, -0.280238, 0.069711, -1.404035, -0.113457, -0.641182
317206.12196554174, 0.033424, -0.280238, 0.069711, -1.404035, -0.113457, -0.641182
317206.14256750006, 0.049217, -0.315067, 0.018788, -1.535836, -0.290189, -0.369643
317206.1518219584, 0.046465, -0.328310, -0.015894, -1.540475, -0.228327, -0.286472
317206.1625419167, 0.039201, -0.329090, -0.043321, -1.494021, -0.152395, -0.277250
317206.1725489584, -0.077328, -0.343615, -0.035771, -1.384892, -0.035531, -0.281442
317206.1825207917, -0.048053, -0.328076, -0.096744, -1.202937, 0.163393, -0.292301
317206.1925197084, 0.060423, -0.305750, -0.115255, -0.991841, 0.364259, -0.299394
317206.2015682501, 0.043707, -0.299095, -0.080052, -0.763876, 0.494023, -0.285176
317206.2125348334, 0.022525, -0.273809, -0.065168, -0.532657, 0.542874, -0.231451
317206.2225396251, 0.018760, -0.233971, -0.060263, -0.292746, 0.500576, -0.152513
317206.23248570843, 0.000187, -0.217437, -0.076565, -0.036329, 0.401583, -0.081017
317206.24258737505, -0.020723, -0.215421, -0.107879, 0.233932, 0.328934, -0.019928
317206.2517521667, -0.034406, -0.215134, -0.139727, 0.525445, 0.295527, 0.034964
317206.26253804174, -0.026885, -0.210322, -0.157727, 0.832512, 0.262236, 0.081980
317206.27256262506, -0.022244, -0.194481, -0.156699, 1.143299, 0.258633, 0.117892
317206.28254066675, 0.000612, -0.178703, -0.152604, 1.442102, 0.313098, 0.130440
317206.29253966676, 0.011874, -0.156832, -0.169049, 1.677598, 0.321147, 0.082203
317206.3016919584, 0.003195, -0.120392, -0.159677, 1.818156, 0.319153, -0.021653
317206.3125463334, 0.032218, -0.083842, -0.219648, 1.838089, 0.558708, -0.084383
317206.3225957084, 0.048723, -0.119330, -0.160086, 1.738023, 0.545158, -0.100833
317206.3416304584, 0.013398, -0.143967, -0.048025, 1.292965, 0.712727, -0.045912
317206.3416304584, 0.013398, -0.143967, -0.048025, 1.292965, 0.712727, -0.045912
317206.35176891676, 0.022249, -0.145699, 0.003388, 0.984514, 0.889722, -0.009608
317206.36257262505, 0.034600, -0.129990, 0.019228, 0.723021, 1.047138, 0.044800
317206.3825487084, 0.118784, -0.114829, 0.019603, 0.493251, 0.976681, 0.199420
317206.3925702084, 0.160179, -0.120378, 0.049246, 0.499163, 0.695160, 0.285377
317206.4018283334, 0.163629, -0.105687, 0.084803, 0.551383, 0.244000, 0.352083
317206.4125731667, 0.151535, -0.078357, 0.105452, 0.626412, -0.253571, 0.375581
317206.4225542917, 0.144399, -0.092889, 0.082048, 0.724048, -0.694087, 0.361746
317206.4326239167, 0.160909, -0.098079, 0.036289, 0.829138, -1.093992, 0.365244
317206.4326239167, 0.160909, -0.098079, 0.036289, 0.829138, -1.093992, 0.365244
317206.4326239167, 0.160909, -0.098079, 0.036289, 0.829138, -1.093992, 0.365244
317206.4326239167, 0.160909, -0.098079, 0.036289, 0.829138, -1.093992, 0.365244
317206.4326239167, 0.160909, -0.098079, 0.036289, 0.829138, -1.093992, 0.365244
317206.4326239167, 0.160909, -0.098079, 0.036289, 0.829138, -1.093992, 0.365244
317206.4326239167, 0.160909, -0.098079, 0.036289, 0.829138, -1.093992, 0.365244
317206.4326239167, 0.160909, -0.098079, 0.036289, 0.829138, -1.093992, 0.365244
317206.4326239167, 0.160909, -0.098079, 0.036289, 0.829138, -1.093992, 0.365244
317206.5017463334, 0.082353, -0.045223, -0.202534, 1.177874, -1.240357, 0.553491
317206.53251879173, 0.052127, -0.057022, -0.121304, 0.481137, -0.660251, 0.508556
317206.5425340834, 0.062863, -0.061445, -0.130251, 0.349264, -0.376042, 0.438906
317206.5518875417, 0.064867, -0.059885, -0.130636, 0.285565, -0.230399, 0.408514
317206.56238166674, 0.086602, -0.058926, -0.052981, 0.092235, 0.059287, 0.342818
317206.57255275006, 0.095739, -0.061122, -0.000314, -0.033660, 0.215822, 0.300472
317206.5825518334, 0.082707, -0.055871, 0.046271, -0.148761, 0.335429, 0.231994
317206.5926150417, 0.070480, -0.057512, 0.097587, -0.249552, 0.399903, 0.162470
317206.60189975007, 0.068700, -0.058805, 0.097900, -0.286136, 0.405791, 0.119907
317206.6125517917, 0.027375, -0.049109, 0.167122, -0.331177, 0.328229, -0.070628
317206.6225427917, 0.041048, -0.042082, 0.203310, -0.344543, 0.221093, -0.158958
317206.63255562505, 0.083796, -0.029451, 0.236882, -0.343787, 0.081887, -0.170948
317206.6522562917, 0.125571, -0.008789, 0.259917, -0.291767, -0.144381, -0.105963
317206.66257904173, 0.062860, 0.025048, 0.233070, -0.200352, -0.266360, -0.067106
317206.66257904173, 0.062860, 0.025048, 0.233070, -0.200352, -0.266360, -0.067106
317206.68251229177, 0.033792, 0.039714, 0.176712, 0.079589, -0.191247, -0.001696
317206.69256979175, 0.024144, 0.056852, 0.118964, 0.198288, -0.142247, 0.034507
317206.70204029174, 0.031162, 0.079482, 0.070505, 0.440448, -0.037930, 0.100320
317206.7125935834, 0.012374, 0.086490, 0.049495, 0.665732, 0.084028, 0.117855
317206.72254150006, -0.025585, 0.087228, 0.050668, 0.854190, 0.221911, 0.102275
317206.73255579174, -0.047117, 0.079676, 0.066389, 0.990411, 0.335439, 0.085997
317206.7425794167, -0.039118, 0.080657, 0.109922, 1.048202, 0.406435, 0.081949
317206.75214179175, 0.004246, 0.082851, 0.172004, 1.011123, 0.441891, 0.074509
317206.7616488334, 0.045091, 0.071616, 0.241729, 0.814171, 0.486956, 0.061748
317206.77250937506, 0.079191, 0.060700, 0.359284, 0.465643, 0.470710, 0.063107
317206.78259187506, 0.103317, 0.058682, 0.477550, 0.079703, 0.432035, 0.055128
317206.79255112505, 0.107391, 0.051144, 0.506861, -0.281292, 0.343327, 0.050338
317206.80204662506, 0.118932, 0.041910, 0.493638, -0.561795, 0.209862, 0.067102
317206.8115717084, 0.139456, 0.047541, 0.431315, -0.721275, 0.109734, 0.103670
317206.82246262504, 0.143568, 0.058237, 0.317183, -0.744586, 0.078630, 0.170324
317206.8324394584, 0.140619, 0.055959, 0.188907, -0.678097, 0.178511, 0.293130
317206.8522756667, 0.098992, 0.018558, 0.021260, -0.444151, 0.279174, 0.418812
317206.8615202917, 0.069588, 0.021830, -0.002180, -0.367790, 0.351401, 0.477474
317206.87254137505, 0.092720, 0.012863, 0.008905, -0.346021, 0.437470, 0.515731
317206.8824319584, 0.091399, 0.005844, 0.031756, -0.408579, 0.287413, 0.563127
317206.89245454175, 0.108712, -0.001784, 0.068651, -0.504196, 0.107056, 0.569675
317206.90203925007, 0.109418, -0.022817, 0.068480, -0.576567, -0.074994, 0.508267
317206.9116892501, 0.063195, -0.039310, 0.015935, -0.602087, -0.235262, 0.402237
317206.92247429176, 0.013212, -0.051348, -0.054357, -0.604702, -0.354274, 0.277717
317206.93245812505, -0.029866, -0.062363, -0.118566, -0.609192, -0.471787, 0.182026
317206.9426274584, -0.040911, -0.067808, -0.164322, -0.585512, -0.635808, 0.096926
317206.95220316673, -0.062606, -0.067585, -0.232105, -0.490415, -0.658311, -0.068887
317206.95220316673, -0.062606, -0.067585, -0.232105, -0.490415, -0.658311, -0.068887
317206.95220316673, -0.062606, -0.067585, -0.232105, -0.490415, -0.658311, -0.068887
317206.95220316673, -0.062606, -0.067585, -0.232105, -0.490415, -0.658311, -0.068887
317206.95220316673, -0.062606, -0.067585, -0.232105, -0.490415, -0.658311, -0.068887
317206.95220316673, -0.062606, -0.067585, -0.232105, -0.490415, -0.658311, -0.068887
317206.95220316673, -0.062606, -0.067585, -0.232105, -0.490415, -0.658311, -0.068887
317206.95220316673, -0.062606, -0.067585, -0.232105, -0.490415, -0.658311, -0.068887
317206.95220316673, -0.062606, -0.067585, -0.232105, -0.490415, -0.658311, -0.068887
317206.96152954176, -0.154711, -0.029180, -0.335126, -0.339644, -0.612139, -0.254318
317207.05239295843, -0.092508, 0.003594, -0.243222, -0.351456, -0.740741, -0.237086
317207.0615712084, -0.103958, -0.036334, -0.300386, -0.289405, -0.745115, -0.293881
317207.07254166674, -0.064921, -0.074460, -0.374083, -0.106650, -0.672388, -0.309535
317207.08251787507, -0.050962, -0.078444, -0.442827, 0.166528, -0.496176, -0.260033
317207.10234329174, -0.005422, -0.066680, -0.401262, 0.675139, -0.045741, 0.034664
317207.11165229173, 0.008333, -0.054625, -0.277252, 0.862214, 0.224199, 0.233217
317207.1225467084, -0.015280, -0.031289, -0.164300, 0.982242, 0.433477, 0.281594
317207.1326025834, -0.126287, 0.006518, -0.045725, 1.006935, 0.608890, 0.230230
317207.14250529173, -0.172983, 0.025283, 0.091917, 0.914614, 0.654221, 0.200475
317207.15238875005, -0.126951, 0.008339, 0.234308, 0.744200, 0.571519, 0.175207
317207.1615747501, -0.092687, -0.025448, 0.334550, 0.543951, 0.419058, 0.088053
317207.1725554584, -0.112077, -0.032876, 0.379257, 0.327564, 0.269492, -0.019270
317207.18251679174, -0.101472, -0.055201, 0.405083, 0.129625, 0.101516, -0.108546
317207.19253741676, -0.071054, -0.083727, 0.376643, -0.058541, -0.167022, -0.295397
317207.2024277917, -0.160977, -0.072330, 0.345735, -0.192974, -0.382499, -0.430704
317207.21167891676, -0.123007, -0.095557, 0.292418, -0.233496, -0.497086, -0.551908
317207.2225380001, -0.136147, -0.098055, 0.191929, -0.184589, -0.499902, -0.656792
317207.23259475006, -0.154808, -0.063440, 0.106904, -0.070641, -0.467842, -0.696611
317207.2425228751, -0.122315, -0.028732, 0.056977, 0.076170, -0.426173, -0.687585
317207.25246491673, -0.089139, 0.014541, 0.044444, 0.233361, -0.382680, -0.629569
317207.2624936667, -0.047311, 0.050530, 0.058119, 0.382049, -0.335941, -0.534202
317207.27243987506, -0.016726, 0.078247, 0.091403, 0.499139, -0.286579, -0.428068
317207.2824475417, 0.000201, 0.096488, 0.137887, 0.566197, -0.237974, -0.329208
317207.2926093751, 0.001906, 0.097989, 0.196003, 0.576296, -0.173396, -0.230033
317207.30238979176, 0.007388, 0.090211, 0.251760, 0.545686, -0.130526, -0.156993
317207.3125203334, -0.006907, 0.072967, 0.286594, 0.492213, -0.040493, -0.097114
317207.3223177501, -0.009338, 0.057984, 0.302356, 0.452254, -0.058467, -0.096956
317207.34252700006, -0.066235, 0.029956, 0.328233, 0.299542, -0.099761, -0.141818
317207.35247387504, -0.032407, -0.008931, 0.326219, 0.227234, -0.117478, -0.180900
317207.36246329173, -0.055748, -0.025078, 0.297601, 0.160178, -0.122056, -0.208414
317207.3719961667, -0.051793, -0.041226, 0.266160, 0.094976, -0.099552, -0.229986
317207.38251912507, -0.050984, -0.056214, 0.228339, 0.042497, -0.076652, -0.250846
317207.39249591675, -0.051612, -0.064871, 0.193134, 0.007551, -0.072144, -0.266703
317207.4024478334, -0.042778, -0.071507, 0.161070, -0.008325, -0.110244, -0.275802
317207.4125977501, -0.031940, -0.079834, 0.128961, -0.003492, -0.154795, -0.286458
317207.42253916676, -0.026450, -0.085482, 0.090657, 0.004919, -0.184854, -0.293607
317207.4324610834, -0.025244, -0.089494, 0.047770, 0.017250, -0.191917, -0.286888
317207.44254262507, -0.012688, -0.088190, 0.003568, 0.019078, -0.191637, -0.269582
317207.45237191673, -0.003557, -0.084159, -0.029118, -0.000655, -0.194194, -0.244603
317207.4625376667, 0.002009, -0.086389, -0.054414, -0.021815, -0.179866, -0.217974
317207.4724604167, 0.004635, -0.091134, -0.097194, -0.024539, -0.118054, -0.187779
317207.4824468334, 0.000530, -0.093952, -0.155424, -0.006330, -0.001961, -0.153380
317207.4824468334, 0.000530, -0.093952, -0.155424, -0.006330, -0.001961, -0.153380
317207.4824468334, 0.000530, -0.093952, -0.155424, -0.006330, -0.001961, -0.153380
317207.4824468334, 0.000530, -0.093952, -0.155424, -0.006330, -0.001961, -0.153380
317207.4824468334, 0.000530, -0.093952, -0.155424, -0.006330, -0.001961, -0.153380
317207.4824468334, 0.000530, -0.093952, -0.155424, -0.006330, -0.001961, -0.153380
317207.4824468334, 0.000530, -0.093952, -0.155424, -0.006330, -0.001961, -0.153380
317207.4824468334, 0.000530, -0.093952, -0.155424, -0.006330, -0.001961, -0.153380
317207.4824468334, 0.000530, -0.093952, -0.155424, -0.006330, -0.001961, -0.153380
317207.58263937506, 0.109640, 0.014857, -0.012945, -0.016096, -0.886713, 0.294815
317207.5925503751, 0.065859, 0.042049, -0.063639, -0.161928, -1.109715, 0.314974
317207.6016118334, 0.048597, 0.055660, -0.208625, -0.170862, -1.041214, 0.323626
317207.61258579174, 0.023103, 0.030109, -0.410107, -0.058329, -0.740479, 0.328194
317207.62252966675, 0.026738, 0.012840, -0.555645, 0.098221, -0.351071, 0.342470
317207.63260287506, 0.055602, 0.007355, -0.590612, 0.221879, 0.020667, 0.367098
317207.6425348334, 0.087607, 0.013157, -0.524249, 0.265144, 0.294031, 0.397103
317207.6525106251, 0.101600, 0.025932, -0.387287, 0.220703, 0.455077, 0.431499
317207.66258675006, 0.098539, 0.040121, -0.233335, 0.126170, 0.515234, 0.464794
317207.67251750006, 0.089754, 0.037346, -0.113407, 0.014822, 0.506846, 0.464492
317207.6825127501, 0.052122, 0.021587, -0.027875, -0.097838, 0.468222, 0.430924
317207.6925505417, 0.021313, 0.000294, 0.029085, -0.191326, 0.408224, 0.354003
317207.7025019584, -0.012742, -0.017803, 0.060407, -0.268412, 0.304406, 0.255778
317207.7225430834, -0.069828, -0.030335, 0.101979, -0.338586, 0.053825, 0.054920
317207.7324644584, -0.069599, -0.022488, 0.101422, -0.310924, -0.064878, -0.025805
317207.7324644584, -0.069599, -0.022488, 0.101422, -0.310924, -0.064878, -0.025805
317207.7525208334, -0.013975, 0.008492, 0.075502, -0.186729, -0.186464, -0.096418
317207.76254037506, 0.006610, 0.033611, 0.070221, -0.097832, -0.193660, -0.071494
317207.77244579175, 0.042724, 0.060026, 0.072594, -0.000806, -0.163506, -0.018551
317207.7825136667, 0.059582, 0.083871, 0.083254, 0.079525, -0.111046, 0.054236
317207.7925421667, 0.068064, 0.098933, 0.113914, 0.136559, -0.073448, 0.138961
317207.8024527501, 0.065371, 0.106977, 0.149936, 0.186067, -0.027427, 0.214589
317207.8024527501, 0.065371, 0.106977, 0.149936, 0.186067, -0.027427, 0.214589
317207.8225439584, 0.048961, 0.091642, 0.195334, 0.305928, 0.074918, 0.308316
317207.8324402501, 0.041623, 0.073069, 0.214138, 0.368232, 0.126121, 0.314524
317207.8425941251, 0.030864, 0.059164, 0.234966, 0.411279, 0.160293, 0.305286
317207.8524626251, 0.022438, 0.051091, 0.263516, 0.441427, 0.161977, 0.292330
317207.8624718334, 0.028399, 0.044662, 0.291875, 0.450711, 0.148204, 0.273351
317207.87252562505, 0.032199, 0.047218, 0.315060, 0.433202, 0.117188, 0.261331
317207.88177454175, 0.039841, 0.055104, 0.331544, 0.387767, 0.096179, 0.262291
317207.89253804175, 0.054831, 0.060733, 0.336531, 0.316919, 0.103025, 0.283215
317207.90248775005, 0.062223, 0.065258, 0.323401, 0.243652, 0.114750, 0.306543
317207.90248775005, 0.062223, 0.065258, 0.323401, 0.243652, 0.114750, 0.306543
317207.90248775005, 0.062223, 0.065258, 0.323401, 0.243652, 0.114750, 0.306543
317207.90248775005, 0.062223, 0.065258, 0.323401, 0.243652, 0.114750, 0.306543
317207.90248775005, 0.062223, 0.065258, 0.323401, 0.243652, 0.114750, 0.306543
317207.90248775005, 0.062223, 0.065258, 0.323401, 0.243652, 0.114750, 0.306543
317207.90248775005, 0.062223, 0.065258, 0.323401, 0.243652, 0.114750, 0.306543
317207.90248775005, 0.062223, 0.065258, 0.323401, 0.243652, 0.114750, 0.306543
317207.90248775005, 0.062223, 0.065258, 0.323401, 0.243652, 0.114750, 0.306543
317207.90248775005, 0.062223, 0.065258, 0.323401, 0.243652, 0.114750, 0.306543
317207.90248775005, 0.062223, 0.065258, 0.323401, 0.243652, 0.114750, 0.306543
317207.90248775005, 0.062223, 0.065258, 0.323401, 0.243652, 0.114750, 0.306543
317207.90248775005, 0.062223, 0.065258, 0.323401, 0.243652, 0.114750, 0.306543
317207.90248775005, 0.062223, 0.065258, 0.323401, 0.243652, 0.114750, 0.306543
317207.90248775005, 0.062223, 0.065258, 0.323401, 0.243652, 0.114750, 0.306543
317207.90248775005, 0.062223, 0.065258, 0.323401, 0.243652, 0.114750, 0.306543
317207.90248775005, 0.062223, 0.065258, 0.323401, 0.243652, 0.114750, 0.306543
317207.90248775005, 0.062223, 0.065258, 0.323401, 0.243652, 0.114750, 0.306543
317207.97252112505, -0.024279, -0.045061, 0.096367, 0.202527, -0.276457, -0.072694
317208.1026092084, -0.035314, 0.046144, -0.170225, -0.273029, 0.036459, -0.423429
317208.11253204173, 0.001556, 0.055423, -0.126633, -0.373825, -0.172041, -0.402821
317208.12261466676, 0.007803, 0.078904, -0.087503, -0.516535, -0.405988, -0.368958
317208.1325670834, 0.001579, 0.110330, -0.083510, -0.669252, -0.581777, -0.299022
317208.1426374167, -0.016419, 0.129956, -0.129750, -0.747007, -0.646205, -0.202251
317208.1426374167, -0.016419, 0.129956, -0.129750, -0.747007, -0.646205, -0.202251
317208.1426374167, -0.016419, 0.129956, -0.129750, -0.747007, -0.646205, -0.202251
317208.1724459584, -0.012625, 0.064056, -0.476589, -0.265720, 0.073871, 0.097025
317208.1920470834, 0.005941, 0.030682, -0.397801, 0.076972, 0.418272, 0.232808
317208.1920470834, 0.005941, 0.030682, -0.397801, 0.076972, 0.418272, 0.232808
317208.21250966674, 0.003200, 0.013647, -0.142239, 0.365284, 0.586733, 0.356153
317208.2225494584, -0.012643, -0.003253, -0.017164, 0.419744, 0.562626, 0.358281
317208.2326720001, -0.036479, -0.025930, 0.090068, 0.402056, 0.478194, 0.306208
317208.2425303751, -0.057316, -0.054012, 0.181497, 0.312924, 0.356839, 0.199725
317208.2525140417, -0.074916, -0.083150, 0.249117, 0.156908, 0.210937, 0.043942
317208.2625398334, -0.089938, -0.104430, 0.301531, -0.062697, 0.007231, -0.146281
317208.2625398334, -0.089938, -0.104430, 0.301531, -0.062697, 0.007231, -0.146281
317208.2625398334, -0.089938, -0.104430, 0.301531, -0.062697, 0.007231, -0.146281
317208.27248225006, -0.089954, -0.112628, 0.328240, -0.313919, -0.217707, -0.343510
317208.30261366675, -0.096932, -0.077849, 0.086981, -0.769041, -0.370875, -0.773396
317208.3126234584, -0.067904, -0.049989, 0.001202, -0.781607, -0.206970, -0.806986
317208.3225308334, -0.036671, -0.030019, -0.061729, -0.711087, 0.000674, -0.793581
317208.3325787917, -0.005547, -0.013511, -0.103568, -0.564185, 0.224476, -0.743731
317208.3425323334, 0.016580, -0.000272, -0.113467, -0.363785, 0.431934, -0.669564
317208.3525397917, 0.029741, 0.009666, -0.087544, -0.149404, 0.599750, -0.574517
317208.3625368334, 0.036092, 0.019327, -0.025961, 0.048404, 0.713800, -0.456225
317208.3625368334, 0.036092, 0.019327, -0.025961, 0.048404, 0.713800, -0.456225
317208.3625368334, 0.036092, 0.019327, -0.025961, 0.048404, 0.713800, -0.456225
317208.3725249584, 0.034937, 0.036261, 0.062161, 0.209480, 0.752951, -0.324919
317208.40258025005, 0.013978, 0.021374, 0.292085, 0.521883, 0.513683, 0.021214
317208.42253216676, -0.011302, -0.027362, 0.343831, 0.639963, 0.236550, 0.112435
317208.43261675007, -0.021819, -0.046353, 0.359334, 0.638458, 0.109148, 0.124530
317208.44253575004, -0.037056, -0.065685, 0.357581, 0.604618, 0.016773, 0.116696
317208.4526037917, -0.046207, -0.079675, 0.341768, 0.537397, -0.050149, 0.108558
317208.46257712506, -0.038269, -0.090844, 0.318080, 0.455781, -0.074502, 0.105077
317208.46257712506, -0.038269, -0.090844, 0.318080, 0.455781, -0.074502, 0.105077
317208.46257712506, -0.038269, -0.090844, 0.318080, 0.455781, -0.074502, 0.105077
317208.46257712506, -0.038269, -0.090844, 0.318080, 0.455781, -0.074502, 0.105077
317208.46257712506, -0.038269, -0.090844, 0.318080, 0.455781, -0.074502, 0.105077
317208.46257712506, -0.038269, -0.090844, 0.318080, 0.455781, -0.074502, 0.105077
317208.46257712506, -0.038269, -0.090844, 0.318080, 0.455781, -0.074502, 0.105077
317208.46257712506, -0.038269, -0.090844, 0.318080, 0.455781, -0.074502, 0.105077
317208.46257712506, -0.038269, -0.090844, 0.318080, 0.455781, -0.074502, 0.105077
317208.46257712506, -0.038269, -0.090844, 0.318080, 0.455781, -0.074502, 0.105077
317208.46257712506, -0.038269, -0.090844, 0.318080, 0.455781, -0.074502, 0.105077
317208.46257712506, -0.038269, -0.090844, 0.318080, 0.455781, -0.074502, 0.105077
317208.46257712506, -0.038269, -0.090844, 0.318080, 0.455781, -0.074502, 0.105077
317208.46257712506, -0.038269, -0.090844, 0.318080, 0.455781, -0.074502, 0.105077
317208.46257712506, -0.038269, -0.090844, 0.318080, 0.455781, -0.074502, 0.105077
317208.46257712506, -0.038269, -0.090844, 0.318080, 0.455781, -0.074502, 0.105077
317208.6225709584, 0.097242, -0.096953, -0.193630, -0.053787, 0.279414, 0.107641
317208.64253475005, 0.172951, -0.067948, -0.160092, -0.054057, 0.315430, 0.269645
317208.65252679173, 0.185841, -0.058045, -0.104687, -0.148465, 0.144696, 0.338512
317208.66258466674, 0.169312, -0.043328, -0.066835, -0.286232, -0.118743, 0.376023
317208.6718125834, 0.141777, -0.036947, -0.108555, -0.373546, -0.346044, 0.401486
317208.6825535834, 0.107811, -0.040545, -0.231912, -0.349322, -0.431030, 0.428293
317208.69248991675, 0.071956, -0.037669, -0.362057, -0.233337, -0.366956, 0.465056
317208.7026050834, 0.055419, -0.028999, -0.432660, -0.084106, -0.206930, 0.517825
317208.7125348751, 0.050870, -0.021414, -0.427911, 0.045442, -0.026711, 0.569134
317208.72254116676, 0.036103, -0.010850, -0.369448, 0.126170, 0.139621, 0.600064
317208.73256016674, 0.025792, -0.000382, -0.270642, 0.132836, 0.220501, 0.598057
317208.74252766673, 0.013960, 0.001478, -0.165956, 0.079952, 0.223935, 0.556542
317208.7525893751, 0.003121, -0.008108, -0.096728, -0.004707, 0.202694, 0.495420
317208.76255891676, 0.011934, -0.025508, -0.064282, -0.099499, 0.201114, 0.426722
317208.77253879176, 0.003164, -0.033493, -0.053488, -0.200360, 0.192049, 0.338486
317208.77253879176, 0.003164, -0.033493, -0.053488, -0.200360, 0.192049, 0.338486
317208.77253879176, 0.003164, -0.033493, -0.053488, -0.200360, 0.192049, 0.338486
317208.78251662507, -0.003569, -0.031398, -0.050306, -0.296613, 0.207568, 0.260113
317208.8222539584, -0.004545, 0.006786, -0.097359, -0.264764, 0.453098, 0.096406
317208.8320134584, -0.015086, 0.013156, -0.056158, -0.203184, 0.443937, 0.063157
317208.84258779173, -0.009115, 0.022181, -0.002923, -0.123343, 0.378196, 0.039129
317208.85250791674, 0.003818, 0.032163, 0.047072, -0.027618, 0.279454, 0.027990
317208.86249400006, 0.014047, 0.041403, 0.089896, 0.077105, 0.167328, 0.024495
317208.87190862506, 0.022097, 0.052236, 0.125195, 0.170724, 0.053268, 0.029767
317208.8820269584, 0.020792, 0.065613, 0.159082, 0.252434, -0.066265, 0.041878
317208.8820269584, 0.020792, 0.065613, 0.159082, 0.252434, -0.066265, 0.041878
317208.8820269584, 0.020792, 0.065613, 0.159082, 0.252434, -0.066265, 0.041878
317208.91251029173, 0.007373, 0.077974, 0.210998, 0.367715, -0.184507, 0.125244
317208.9225517917, -0.005001, 0.067241, 0.222094, 0.363886, -0.169477, 0.134827
317208.9225517917, -0.005001, 0.067241, 0.222094, 0.363886, -0.169477, 0.134827
317208.9225517917, -0.005001, 0.067241, 0.222094, 0.363886, -0.169477, 0.134827
317208.9225517917, -0.005001, 0.067241, 0.222094, 0.363886, -0.169477, 0.134827
317208.9225517917, -0.005001, 0.067241, 0.222094, 0.363886, -0.169477, 0.134827
317208.9225517917, -0.005001, 0.067241, 0.222094, 0.363886, -0.169477, 0.134827
317208.9225517917, -0.005001, 0.067241, 0.222094, 0.363886, -0.169477, 0.134827
317208.9225517917, -0.005001, 0.067241, 0.222094, 0.363886, -0.169477, 0.134827
317208.9225517917, -0.005001, 0.067241, 0.222094, 0.363886, -0.169477, 0.134827
317208.9225517917, -0.005001, 0.067241, 0.222094, 0.363886, -0.169477, 0.134827
317208.9225517917, -0.005001, 0.067241, 0.222094, 0.363886, -0.169477, 0.134827
317208.9225517917, -0.005001, 0.067241, 0.222094, 0.363886, -0.169477, 0.134827
317208.9225517917, -0.005001, 0.067241, 0.222094, 0.363886, -0.169477, 0.134827
317208.9225517917, -0.005001, 0.067241, 0.222094, 0.363886, -0.169477, 0.134827
317208.9225517917, -0.005001, 0.067241, 0.222094, 0.363886, -0.169477, 0.134827
317208.9225517917, -0.005001, 0.067241, 0.222094, 0.363886, -0.169477, 0.134827
317208.9225517917, -0.005001, 0.067241, 0.222094, 0.363886, -0.169477, 0.134827
317208.9225517917, -0.005001, 0.067241, 0.222094, 0.363886, -0.169477, 0.134827
317208.9225517917, -0.005001, 0.067241, 0.222094, 0.363886, -0.169477, 0.134827
317208.9225517917, -0.005001, 0.067241, 0.222094, 0.363886, -0.169477, 0.134827
317208.9225517917, -0.005001, 0.067241, 0.222094, 0.363886, -0.169477, 0.134827
317209.12252329173, -0.082453, 0.097549, -0.046268, 0.112223, -0.548182, -0.333491
317209.1525475001, -0.092220, 0.130598, -0.219708, 0.018769, -0.410559, -0.299351
317209.1625124167, -0.083377, 0.125369, -0.247986, -0.021475, -0.278457, -0.276054
317209.1625124167, -0.083377, 0.125369, -0.247986, -0.021475, -0.278457, -0.276054
317209.1625124167, -0.083377, 0.125369, -0.247986, -0.021475, -0.278457, -0.276054
317209.1925443751, -0.017815, 0.096989, -0.192664, -0.202529, -0.261079, -0.267099
317209.20249150007, -0.003772, 0.102369, -0.163549, -0.325922, -0.363411, -0.237789
317209.2125178751, -0.010870, 0.121888, -0.129507, -0.493953, -0.511510, -0.191799
317209.22252262506, -0.037643, 0.139849, -0.127277, -0.682391, -0.671262, -0.140553
317209.2425205001, -0.085338, 0.112279, -0.282200, -0.839798, -0.798478, -0.057996
317209.2522089584, -0.087352, 0.063993, -0.432708, -0.724625, -0.594299, -0.011552
317209.2625296251, -0.078015, 0.020555, -0.530153, -0.508441, -0.297025, 0.042915
317209.27226979175, -0.068698, -0.006513, -0.555532, -0.238994, 0.001437, 0.093645
317209.2825307084, -0.067106, -0.017979, -0.497519, 0.021125, 0.229127, 0.139471
317209.2825307084, -0.067106, -0.017979, -0.497519, 0.021125, 0.229127, 0.139471
317209.2825307084, -0.067106, -0.017979, -0.497519, 0.021125, 0.229127, 0.139471
317209.2825307084, -0.067106, -0.017979, -0.497519, 0.021125, 0.229127, 0.139471
317209.3226000834, -0.065690, 0.003732, 0.085519, 0.286860, 0.080987, 0.152716
317209.3325862917, -0.065407, -0.005519, 0.173043, 0.173659, -0.052886, 0.081336
317209.3425203751, -0.065587, -0.013514, 0.230376, 0.010235, -0.176975, -0.015843
317209.3525264167, -0.057513, -0.019733, 0.250799, -0.179721, -0.260905, -0.122623
317209.36255091673, -0.043093, -0.028664, 0.231275, -0.355251, -0.291894, -0.223503
317209.3725900834, -0.035570, -0.032446, 0.179379, -0.499259, -0.254497, -0.305421
317209.3825415834, -0.035300, -0.027723, 0.115788, -0.599114, -0.141816, -0.356263
317209.3925663751, -0.030024, -0.019096, 0.060508, -0.648007, 0.013852, -0.367256
317209.3925663751, -0.030024, -0.019096, 0.060508, -0.648007, 0.013852, -0.367256
317209.4024732084, -0.017791, -0.010280, 0.028923, -0.638860, 0.185796, -0.350393
317209.43265366676, 0.007381, -0.022691, 0.059355, -0.373307, 0.543804, -0.253204
317209.4425272917, 0.009322, -0.028537, 0.094936, -0.227842, 0.580647, -0.224787
317209.45250941673, 0.008377, -0.028649, 0.139629, -0.077200, 0.575554, -0.202104
317209.4625353751, 0.011576, -0.028701, 0.191785, 0.060505, 0.522725, -0.173882
317209.47243529174, 0.016910, -0.025107, 0.243616, 0.172750, 0.439679, -0.136494
317209.4825183751, 0.024004, -0.021646, 0.293357, 0.247198, 0.340180, -0.100547
317209.4925307084, 0.022687, -0.026789, 0.332972, 0.277162, 0.236181, -0.078747
317209.4925307084, 0.022687, -0.026789, 0.332972, 0.277162, 0.236181, -0.078747
317209.4925307084, 0.022687, -0.026789, 0.332972, 0.277162, 0.236181, -0.078747
317209.4925307084, 0.022687, -0.026789, 0.332972, 0.277162, 0.236181, -0.078747
317209.4925307084, 0.022687, -0.026789, 0.332972, 0.277162, 0.236181, -0.078747
317209.4925307084, 0.022687, -0.026789, 0.332972, 0.277162, 0.236181, -0.078747
317209.4925307084, 0.022687, -0.026789, 0.332972, 0.277162, 0.236181, -0.078747
317209.4925307084, 0.022687, -0.026789, 0.332972, 0.277162, 0.236181, -0.078747
317209.4925307084, 0.022687, -0.026789, 0.332972, 0.277162, 0.236181, -0.078747
317209.4925307084, 0.022687, -0.026789, 0.332972, 0.277162, 0.236181, -0.078747
317209.4925307084, 0.022687, -0.026789, 0.332972, 0.277162, 0.236181, -0.078747
317209.4925307084, 0.022687, -0.026789, 0.332972, 0.277162, 0.236181, -0.078747
317209.4925307084, 0.022687, -0.026789, 0.332972, 0.277162, 0.236181, -0.078747
317209.4925307084, 0.022687, -0.026789, 0.332972, 0.277162, 0.236181, -0.078747
317209.4925307084, 0.022687, -0.026789, 0.332972, 0.277162, 0.236181, -0.078747
317209.4925307084, 0.022687, -0.026789, 0.332972, 0.277162, 0.236181, -0.078747
317209.4925307084, 0.022687, -0.026789, 0.332972, 0.277162, 0.236181, -0.078747
317209.6327725417, 0.012184, -0.117270, -0.019671, 0.087934, 0.295819, 0.042261
317209.6826175001, 0.029841, -0.112984, -0.127248, 0.284231, 0.175951, 0.113585
317209.6925342501, 0.065996, -0.107354, -0.162219, 0.348756, 0.244158, 0.188043
317209.7025098334, 0.103800, -0.106446, -0.175476, 0.392268, 0.259192, 0.262304
317209.71251091675, 0.126274, -0.108155, -0.155321, 0.411732, 0.165554, 0.314481
317209.72262337507, 0.125876, -0.092760, -0.121582, 0.336647, -0.049901, 0.334275
317209.73164441675, 0.098929, -0.060351, -0.072013, 0.140154, -0.348155, 0.338261
317209.7426039584, 0.063556, -0.030468, -0.044944, -0.080934, -0.616489, 0.342033
317209.7526079167, 0.029602, -0.024033, -0.107489, -0.205646, -0.766335, 0.324348
317209.76254004176, -0.003314, -0.034618, -0.252389, -0.206553, -0.761467, 0.276779
317209.7725934584, -0.031946, -0.044998, -0.415528, -0.118444, -0.606771, 0.225402
317209.7825455001, -0.036680, -0.043189, -0.529064, 0.011635, -0.364963, 0.201976
317209.7925336667, -0.013707, -0.026531, -0.564972, 0.154369, -0.108424, 0.199408
317209.8025910834, 0.019187, -0.000863, -0.534348, 0.276401, 0.091787, 0.202045
317209.8025910834, 0.019187, -0.000863, -0.534348, 0.276401, 0.091787, 0.202045
317209.82248791674, 0.064827, 0.055247, -0.312159, 0.324451, 0.205069, 0.213649
317209.8326429584, 0.065153, 0.074736, -0.198013, 0.277675, 0.184990, 0.219005
317209.8525415834, 0.061166, 0.085621, -0.045146, 0.128004, 0.047557, 0.227546
317209.8525415834, 0.061166, 0.085621, -0.045146, 0.128004, 0.047557, 0.227546
317209.8725856251, 0.035910, 0.069503, 0.018722, -0.017258, -0.083357, 0.184987
317209.8725856251, 0.035910, 0.069503, 0.018722, -0.017258, -0.083357, 0.184987
317209.89254225005, -0.008855, 0.040605, 0.012582, -0.097488, -0.103857, 0.077113
317209.89254225005, -0.008855, 0.040605, 0.012582, -0.097488, -0.103857, 0.077113
317209.9025725834, -0.022016, 0.031342, 0.013202, -0.126778, -0.106709, 0.015054
317209.9025725834, -0.022016, 0.031342, 0.013202, -0.126778, -0.106709, 0.015054
317209.93212591676, 0.006187, 0.040819, 0.065150, -0.149793, -0.164838, -0.068882
317209.94257787504, 0.013312, 0.052350, 0.082427, -0.150292, -0.166323, -0.050357
317209.95257554174, 0.026336, 0.055594, 0.094332, -0.128712, -0.152960, -0.011079
317209.95257554174, 0.026336, 0.055594, 0.094332, -0.128712, -0.152960, -0.011079
317209.95257554174, 0.026336, 0.055594, 0.094332, -0.128712, -0.152960, -0.011079
317209.95257554174, 0.026336, 0.055594, 0.094332, -0.128712, -0.152960, -0.011079
317209.95257554174, 0.026336, 0.055594, 0.094332, -0.128712, -0.152960, -0.011079
317209.95257554174, 0.026336, 0.055594, 0.094332, -0.128712, -0.152960, -0.011079
317209.95257554174, 0.026336, 0.055594, 0.094332, -0.128712, -0.152960, -0.011079
317209.95257554174, 0.026336, 0.055594, 0.094332, -0.128712, -0.152960, -0.011079
317209.95257554174, 0.026336, 0.055594, 0.094332, -0.128712, -0.152960, -0.011079
317209.95257554174, 0.026336, 0.055594, 0.094332, -0.128712, -0.152960, -0.011079
317209.95257554174, 0.026336, 0.055594, 0.094332, -0.128712, -0.152960, -0.011079
317209.95257554174, 0.026336, 0.055594, 0.094332, -0.128712, -0.152960, -0.011079
317209.95257554174, 0.026336, 0.055594, 0.094332, -0.128712, -0.152960, -0.011079
317209.95257554174, 0.026336, 0.055594, 0.094332, -0.128712, -0.152960, -0.011079
317209.95257554174, 0.026336, 0.055594, 0.094332, -0.128712, -0.152960, -0.011079
317209.95257554174, 0.026336, 0.055594, 0.094332, -0.128712, -0.152960, -0.011079
317209.95257554174, 0.026336, 0.055594, 0.094332, -0.128712, -0.152960, -0.011079
317209.95257554174, 0.026336, 0.055594, 0.094332, -0.128712, -0.152960, -0.011079
317209.95257554174, 0.026336, 0.055594, 0.094332, -0.128712, -0.152960, -0.011079
317209.95257554174, 0.026336, 0.055594, 0.094332, -0.128712, -0.152960, -0.011079
317209.95257554174, 0.026336, 0.055594, 0.094332, -0.128712, -0.152960, -0.011079
317209.95257554174, 0.026336, 0.055594, 0.094332, -0.128712, -0.152960, -0.011079
317209.95257554174, 0.026336, 0.055594, 0.094332, -0.128712, -0.152960, -0.011079
317209.95257554174, 0.026336, 0.055594, 0.094332, -0.128712, -0.152960, -0.011079
317210.20252337505, -0.022697, 0.082355, -0.024285, 0.276821, -0.358928, -0.347196
317210.2125221667, -0.002757, 0.114043, -0.067244, 0.270857, -0.415930, -0.345116
317210.2225914584, 0.003171, 0.141607, -0.111302, 0.260046, -0.427936, -0.335074
317210.2326462917, -0.006516, 0.164338, -0.148111, 0.227774, -0.366184, -0.315696
317210.2425489167, -0.017381, 0.169748, -0.173250, 0.166397, -0.236717, -0.281326
317210.25251087506, -0.010833, 0.161572, -0.180789, 0.075021, -0.091510, -0.252562
317210.27248941676, -0.002596, 0.131041, -0.120154, -0.182163, -0.023449, -0.273249
317210.2825552917, 0.003219, 0.111609, -0.069396, -0.339543, -0.113252, -0.308381
317210.2825552917, 0.003219, 0.111609, -0.069396, -0.339543, -0.113252, -0.308381
317210.29253100004, 0.001132, 0.097724, -0.035978, -0.522355, -0.271231, -0.349192
317210.3126557501, -0.058111, 0.130299, -0.015705, -0.981191, -0.712075, -0.419691
317210.3126557501, -0.058111, 0.130299, -0.015705, -0.981191, -0.712075, -0.419691
317210.3126557501, -0.058111, 0.130299, -0.015705, -0.981191, -0.712075, -0.419691
317210.3420965834, -0.090309, 0.133320, -0.385501, -1.036013, -0.446365, -0.327664
317210.3525455834, -0.058859, 0.112857, -0.540845, -0.786997, -0.034233, -0.205087
317210.3625547084, -0.023956, 0.094425, -0.612572, -0.478006, 0.353852, -0.069143
317210.37160241674, -0.002937, 0.081680, -0.585115, -0.184190, 0.617854, 0.072688
317210.38251579175, 0.006499, 0.077776, -0.462937, 0.048712, 0.717498, 0.203434
317210.3925927084, -0.001503, 0.073142, -0.289682, 0.204499, 0.690182, 0.302675
317210.40251904173, -0.032093, 0.067143, -0.123536, 0.281711, 0.561736, 0.349158
317210.41251254175, -0.070224, 0.050541, 0.023149, 0.278503, 0.358800, 0.338059
317210.41251254175, -0.070224, 0.050541, 0.023149, 0.278503, 0.358800, 0.338059
317210.41251254175, -0.070224, 0.050541, 0.023149, 0.278503, 0.358800, 0.338059
317210.4425280417, -0.148867, -0.016754, 0.293754, -0.142134, -0.359192, 0.012067
317210.45250516676, -0.156835, -0.034540, 0.305426, -0.338299, -0.509916, -0.141119
317210.46256679174, -0.153122, -0.052682, 0.261871, -0.500666, -0.535879, -0.281265
317210.47164000006, -0.144587, -0.059658, 0.174629, -0.603324, -0.432974, -0.379939
317210.47164000006, -0.144587, -0.059658, 0.174629, -0.603324, -0.432974, -0.379939
317210.4924931251, -0.116069, -0.035709, 0.016402, -0.638891, 0.013119, -0.441485
317210.50256975007, -0.099059, -0.026820, -0.014257, -0.588037, 0.255055, -0.422879
317210.51252587506, -0.082733, -0.023938, -0.010150, -0.500245, 0.434967, -0.399241
317210.51252587506, -0.082733, -0.023938, -0.010150, -0.500245, 0.434967, -0.399241
317210.51252587506, -0.082733, -0.023938, -0.010150, -0.500245, 0.434967, -0.399241
317210.5217336251, -0.066424, -0.025449, 0.028517, -0.393588, 0.525580, -0.375698
317210.55253045843, -0.020285, -0.019798, 0.202994, -0.014806, 0.404338, -0.259063
317210.56261187507, -0.009389, -0.019613, 0.263169, 0.072346, 0.281726, -0.218358
317210.56261187507, -0.009389, -0.019613, 0.263169, 0.072346, 0.281726, -0.218358
317210.56261187507, -0.009389, -0.019613, 0.263169, 0.072346, 0.281726, -0.218358
317210.56261187507, -0.009389, -0.019613, 0.263169, 0.072346, 0.281726, -0.218358
317210.56261187507, -0.009389, -0.019613, 0.263169, 0.072346, 0.281726, -0.218358
317210.56261187507, -0.009389, -0.019613, 0.263169, 0.072346, 0.281726, -0.218358
317210.56261187507, -0.009389, -0.019613, 0.263169, 0.072346, 0.281726, -0.218358
317210.56261187507, -0.009389, -0.019613, 0.263169, 0.072346, 0.281726, -0.218358
317210.56261187507, -0.009389, -0.019613, 0.263169, 0.072346, 0.281726, -0.218358
317210.56261187507, -0.009389, -0.019613, 0.263169, 0.072346, 0.281726, -0.218358
317210.56261187507, -0.009389, -0.019613, 0.263169, 0.072346, 0.281726, -0.218358
317210.56261187507, -0.009389, -0.019613, 0.263169, 0.072346, 0.281726, -0.218358
317210.56261187507, -0.009389, -0.019613, 0.263169, 0.072346, 0.281726, -0.218358
317210.56261187507, -0.009389, -0.019613, 0.263169, 0.072346, 0.281726, -0.218358
317210.56261187507, -0.009389, -0.019613, 0.263169, 0.072346, 0.281726, -0.218358
317210.7025250834, 0.113102, -0.188929, -0.019514, 0.101844, 0.091317, 0.133241
317210.73258912505, 0.114810, -0.166671, -0.034979, 0.268466, 0.087692, 0.252387
317210.73258912505, 0.114810, -0.166671, -0.034979, 0.268466, 0.087692, 0.252387
317210.73258912505, 0.114810, -0.166671, -0.034979, 0.268466, 0.087692, 0.252387
317210.77188629174, 0.062686, -0.135274, -0.093813, 0.427810, 0.153425, 0.407275
317210.7825192084, 0.049981, -0.139121, -0.106972, 0.454694, 0.200893, 0.430547
317210.7925664584, 0.042099, -0.143343, -0.128657, 0.484945, 0.241903, 0.460587
317210.80253254174, 0.049598, -0.154733, -0.148626, 0.509551, 0.187497, 0.480940
317210.81250187504, 0.068342, -0.162046, -0.154093, 0.498829, 0.061990, 0.483529
317210.8218754584, 0.084492, -0.166124, -0.158967, 0.440458, -0.066140, 0.494483
317210.83255150006, 0.095545, -0.159776, -0.167516, 0.353013, -0.202962, 0.513964
317210.8426754584, 0.073964, -0.141034, -0.178903, 0.224119, -0.375394, 0.515541
317210.85250991676, 0.007569, -0.100907, -0.192534, 0.052391, -0.540038, 0.480598
317210.8625339584, -0.070760, -0.063881, -0.230042, -0.067710, -0.577316, 0.407104
317210.87197375007, -0.148890, -0.049536, -0.334504, -0.061672, -0.448880, 0.312050
317210.88261245843, -0.196215, -0.049326, -0.468029, 0.062383, -0.259071, 0.211288
317210.9025130834, -0.105690, -0.053326, -0.525155, 0.423476, -0.166015, 0.050261
317210.91251512506, -0.026184, -0.049372, -0.463035, 0.571899, -0.223055, -0.008834
317210.91251512506, -0.026184, -0.049372, -0.463035, 0.571899, -0.223055, -0.008834
317210.9220530001, -0.003627, -0.017243, -0.400688, 0.642728, -0.250270, -0.053387
317210.9220530001, -0.003627, -0.017243, -0.400688, 0.642728, -0.250270, -0.053387
317210.9220530001, -0.003627, -0.017243, -0.400688, 0.642728, -0.250270, -0.053387
317210.9220530001, -0.003627, -0.017243, -0.400688, 0.642728, -0.250270, -0.053387
317210.9625232501, -0.059586, 0.132905, -0.232625, 0.335283, 0.078216, -0.119850
317210.9720652501, -0.075338, 0.134533, -0.194107, 0.218442, 0.160854, -0.158491
317210.9720652501, -0.075338, 0.134533, -0.194107, 0.218442, 0.160854, -0.158491
317210.9720652501, -0.075338, 0.134533, -0.194107, 0.218442, 0.160854, -0.158491
317211.0025560834, -0.083196, 0.117432, -0.122853, 0.070266, 0.207466, -0.328245
317211.0025560834, -0.083196, 0.117432, -0.122853, 0.070266, 0.207466, -0.328245
317211.0025560834, -0.083196, 0.117432, -0.122853, 0.070266, 0.207466, -0.328245
317211.0025560834, -0.083196, 0.117432, -0.122853, 0.070266, 0.207466, -0.328245
317211.0025560834, -0.083196, 0.117432, -0.122853, 0.070266, 0.207466, -0.328245
317211.0025560834, -0.083196, 0.117432, -0.122853, 0.070266, 0.207466, -0.328245
317211.0025560834, -0.083196, 0.117432, -0.122853, 0.070266, 0.207466, -0.328245
317211.0025560834, -0.083196, 0.117432, -0.122853, 0.070266, 0.207466, -0.328245
317211.0025560834, -0.083196, 0.117432, -0.122853, 0.070266, 0.207466, -0.328245
317211.0025560834, -0.083196, 0.117432, -0.122853, 0.070266, 0.207466, -0.328245
317211.0025560834, -0.083196, 0.117432, -0.122853, 0.070266, 0.207466, -0.328245
317211.0025560834, -0.083196, 0.117432, -0.122853, 0.070266, 0.207466, -0.328245
317211.0025560834, -0.083196, 0.117432, -0.122853, 0.070266, 0.207466, -0.328245
317211.0025560834, -0.083196, 0.117432, -0.122853, 0.070266, 0.207466, -0.328245
317211.0025560834, -0.083196, 0.117432, -0.122853, 0.070266, 0.207466, -0.328245
317211.0025560834, -0.083196, 0.117432, -0.122853, 0.070266, 0.207466, -0.328245
317211.0025560834, -0.083196, 0.117432, -0.122853, 0.070266, 0.207466, -0.328245
317211.0025560834, -0.083196, 0.117432, -0.122853, 0.070266, 0.207466, -0.328245
317211.0025560834, -0.083196, 0.117432, -0.122853, 0.070266, 0.207466, -0.328245
317211.0025560834, -0.083196, 0.117432, -0.122853, 0.070266, 0.207466, -0.328245
317211.0025560834, -0.083196, 0.117432, -0.122853, 0.070266, 0.207466, -0.328245
317211.0025560834, -0.083196, 0.117432, -0.122853, 0.070266, 0.207466, -0.328245
317211.1426273751, 0.069406, 0.144753, 0.277930, 0.436060, 0.053508, 0.002367
317211.2525144584, 0.141499, 0.019604, 0.179570, 0.123510, -0.003076, 0.119562
317211.2626290834, 0.136005, 0.022940, 0.170921, 0.141806, 0.034922, 0.085350
317211.2723121251, 0.142365, 0.021973, 0.166397, 0.142346, 0.077877, 0.050630
317211.28259116673, 0.158450, 0.023452, 0.169074, 0.126079, 0.089985, 0.022605
317211.2925397917, 0.179934, 0.034894, 0.170143, 0.100486, 0.085294, 0.015713
317211.30258916673, 0.197390, 0.047551, 0.154016, 0.081962, 0.091764, 0.027504
317211.3125445417, 0.198865, 0.060810, 0.133260, 0.061643, 0.094477, 0.052735
317211.3125445417, 0.198865, 0.060810, 0.133260, 0.061643, 0.094477, 0.052735
317211.3318227917, 0.205704, 0.057532, 0.077928, 0.056774, 0.116987, 0.137765
317211.3425501251, 0.198650, 0.048899, 0.039688, 0.093815, 0.145610, 0.179901
317211.36253579176, 0.154354, 0.041500, 0.044485, 0.128574, 0.059445, 0.202361
317211.37236554176, 0.153755, 0.035212, 0.030925, 0.136984, 0.011578, 0.210559
317211.37236554176, 0.153755, 0.035212, 0.030925, 0.136984, 0.011578, 0.210559
317211.3925306667, 0.182918, 0.020305, -0.091844, 0.204427, 0.037448, 0.215647
317211.4025195834, 0.178025, 0.028381, -0.136839, 0.184236, 0.087492, 0.193683
317211.4125240834, 0.175332, 0.062386, -0.138553, 0.078231, 0.120192, 0.197480
317211.42241779173, 0.199840, 0.105281, -0.130000, -0.064632, 0.116386, 0.256495
317211.4316565417, 0.225831, 0.141152, -0.133117, -0.198520, 0.092483, 0.356694
317211.4316565417, 0.225831, 0.141152, -0.133117, -0.198520, 0.092483, 0.356694
317211.4316565417, 0.225831, 0.141152, -0.133117, -0.198520, 0.092483, 0.356694
317211.4316565417, 0.225831, 0.141152, -0.133117, -0.198520, 0.092483, 0.356694
317211.4725033334, 0.171921, 0.209582, -0.344619, -0.352485, -0.005230, 0.812390
317211.4824810834, 0.166146, 0.209203, -0.430547, -0.219651, 0.109647, 0.942406
317211.4924905001, 0.189488, 0.205250, -0.486742, -0.041831, 0.292948, 1.086758
317211.5025352917, 0.223378, 0.194957, -0.491396, 0.130112, 0.500090, 1.225459
317211.5123873334, 0.248267, 0.189434, -0.437014, 0.240353, 0.695024, 1.341784
317211.52259466675, 0.254333, 0.191787, -0.341474, 0.263547, 0.833682, 1.431933
317211.5325377084, 0.248110, 0.200180, -0.233877, 0.199705, 0.909449, 1.493181
317211.5421514167, 0.254083, 0.210244, -0.138917, 0.069686, 0.895740, 1.546750
317211.5421514167, 0.254083, 0.210244, -0.138917, 0.069686, 0.895740, 1.546750
317211.5421514167, 0.254083, 0.210244, -0.138917, 0.069686, 0.895740, 1.546750
317211.5724590417, 0.348624, 0.224534, -0.100045, -0.267869, 0.528901, 1.756428
317211.5926171251, 0.412228, 0.229263, -0.230090, -0.266777, 0.413998, 1.970880
317211.6024635417, 0.421193, 0.240362, -0.277983, -0.225784, 0.406985, 2.075759
317211.6024635417, 0.421193, 0.240362, -0.277983, -0.225784, 0.406985, 2.075759
317211.6024635417, 0.421193, 0.240362, -0.277983, -0.225784, 0.406985, 2.075759
317211.6024635417, 0.421193, 0.240362, -0.277983, -0.225784, 0.406985, 2.075759
317211.6024635417, 0.421193, 0.240362, -0.277983, -0.225784, 0.406985, 2.075759
317211.6024635417, 0.421193, 0.240362, -0.277983, -0.225784, 0.406985, 2.075759
317211.6024635417, 0.421193, 0.240362, -0.277983, -0.225784, 0.406985, 2.075759
317211.6024635417, 0.421193, 0.240362, -0.277983, -0.225784, 0.406985, 2.075759
317211.6024635417, 0.421193, 0.240362, -0.277983, -0.225784, 0.406985, 2.075759
317211.6024635417, 0.421193, 0.240362, -0.277983, -0.225784, 0.406985, 2.075759
317211.6024635417, 0.421193, 0.240362, -0.277983, -0.225784, 0.406985, 2.075759
317211.6024635417, 0.421193, 0.240362, -0.277983, -0.225784, 0.406985, 2.075759
317211.6024635417, 0.421193, 0.240362, -0.277983, -0.225784, 0.406985, 2.075759
317211.6024635417, 0.421193, 0.240362, -0.277983, -0.225784, 0.406985, 2.075759
317211.6024635417, 0.421193, 0.240362, -0.277983, -0.225784, 0.406985, 2.075759
317211.6024635417, 0.421193, 0.240362, -0.277983, -0.225784, 0.406985, 2.075759
317211.6024635417, 0.421193, 0.240362, -0.277983, -0.225784, 0.406985, 2.075759
317211.7424997917, 0.189293, 0.354720, -0.130214, 0.406374, 0.939811, 3.266165
317211.7424997917, 0.189293, 0.354720, -0.130214, 0.406374, 0.939811, 3.266165
317211.7925922084, 0.126295, 0.446039, -0.109642, 1.061629, 1.043778, 3.800048
317211.8025135417, 0.113269, 0.444406, -0.072100, 1.163095, 1.077114, 3.874340
317211.8226035417, 0.087451, 0.406751, 0.016678, 1.246194, 1.063474, 3.918361
317211.8325434584, 0.076808, 0.382709, 0.042821, 1.248493, 1.038240, 3.888814
317211.84253404173, 0.072507, 0.348410, 0.035296, 1.254616, 1.065434, 3.839476
317211.85251816676, 0.068551, 0.312791, 0.025850, 1.245407, 1.097680, 3.779324
317211.8626478751, 0.056122, 0.281786, 0.031546, 1.202006, 1.102902, 3.708302
317211.87251679174, 0.044119, 0.237162, 0.025631, 1.137006, 1.113734, 3.615398
317211.88260541676, 0.030812, 0.179529, -0.006902, 1.091567, 1.143122, 3.477563
317211.89251216676, 0.007893, 0.117165, -0.054959, 1.058472, 1.198887, 3.292647
317211.90261454176, -0.007678, 0.048750, -0.078070, 1.004314, 1.222884, 3.063197
317211.91254025005, -0.013230, -0.012043, -0.073290, 0.923697, 1.168461, 2.800922
317211.92250916676, -0.007840, -0.056850, -0.074294, 0.841670, 1.071246, 2.516268
317211.9325199584, 0.007239, -0.095066, -0.103815, 0.784232, 1.021487, 2.237850
317211.94251162506, 0.017045, -0.114781, -0.151300, 0.743194, 1.029205, 1.956738
317211.95250337507, 0.008657, -0.101968, -0.178684, 0.678087, 1.109475, 1.698388
317211.95250337507, 0.008657, -0.101968, -0.178684, 0.678087, 1.109475, 1.698388
317211.95250337507, 0.008657, -0.101968, -0.178684, 0.678087, 1.109475, 1.698388
317211.9825300001, -0.042587, 0.000529, -0.097976, 0.199901, 1.333281, 1.146092
317211.9923324584, -0.070627, 0.008120, -0.066392, -0.015146, 1.279927, 0.980675
317212.00253766676, -0.086340, -0.007187, -0.081772, -0.170262, 1.222903, 0.816051
317212.0225300001, -0.115956, -0.046674, -0.169721, -0.240840, 1.250386, 0.469572
317212.0325258334, -0.113143, -0.050069, -0.175369, -0.215210, 1.303146, 0.310904
317212.04252679175, -0.103290, -0.037821, -0.139040, -0.206617, 1.367076, 0.169151
317212.04252679175, -0.103290, -0.037821, -0.139040, -0.206617, 1.367076, 0.169151
317212.0525624584, -0.086834, -0.007762, -0.074160, -0.234891, 1.443977, 0.054708
317212.0525624584, -0.086834, -0.007762, -0.074160, -0.234891, 1.443977, 0.054708
317212.0525624584, -0.086834, -0.007762, -0.074160, -0.234891, 1.443977, 0.054708
317212.0525624584, -0.086834, -0.007762, -0.074160, -0.234891, 1.443977, 0.054708
317212.0525624584, -0.086834, -0.007762, -0.074160, -0.234891, 1.443977, 0.054708
317212.0525624584, -0.086834, -0.007762, -0.074160, -0.234891, 1.443977, 0.054708
317212.1225209584, -0.005969, 0.101881, 0.235184, -0.516108, 1.151551, 0.128994
317212.1316372501, -0.010279, 0.091859, 0.216080, -0.440056, 1.024620, 0.182852
317212.14258016675, -0.004531, 0.079353, 0.182548, -0.308763, 0.922489, 0.251269
317212.1524981667, 0.007323, 0.067986, 0.162177, -0.153735, 0.833705, 0.329834
317212.16172250005, 0.021179, 0.060692, 0.160137, -0.002843, 0.746770, 0.417254
317212.1724564167, 0.042804, 0.054151, 0.157404, 0.135966, 0.668402, 0.517890
317212.1824253751, 0.049121, 0.047392, 0.155287, 0.257883, 0.621556, 0.614974
317212.1925748751, 0.033452, 0.035644, 0.152402, 0.343102, 0.608034, 0.699656
317212.2025000001, 0.013520, 0.015971, 0.164758, 0.384352, 0.593913, 0.758575
317212.2025000001, 0.013520, 0.015971, 0.164758, 0.384352, 0.593913, 0.758575
317212.2025000001, 0.013520, 0.015971, 0.164758, 0.384352, 0.593913, 0.758575
317212.2025000001, 0.013520, 0.015971, 0.164758, 0.384352, 0.593913, 0.758575
317212.2025000001, 0.013520, 0.015971, 0.164758, 0.384352, 0.593913, 0.758575
317212.2025000001, 0.013520, 0.015971, 0.164758, 0.384352, 0.593913, 0.758575
317212.2025000001, 0.013520, 0.015971, 0.164758, 0.384352, 0.593913, 0.758575
317212.2025000001, 0.013520, 0.015971, 0.164758, 0.384352, 0.593913, 0.758575
317212.2025000001, 0.013520, 0.015971, 0.164758, 0.384352, 0.593913, 0.758575
317212.3015135417, -0.072248, -0.108914, 0.158774, 0.005396, 0.282059, 0.097040
317212.3124391667, -0.033804, -0.089129, 0.108095, -0.065505, 0.203171, 0.081187
317212.3225011667, -0.032537, -0.084090, 0.091921, -0.117722, 0.132264, 0.078018
317212.33186512504, -0.032885, -0.084673, 0.092213, -0.141530, 0.098330, 0.073610
317212.3416727501, -0.038125, -0.084773, 0.069897, -0.187942, 0.053860, 0.062696
317212.3525575834, -0.055249, -0.095490, -0.003734, -0.243518, 0.044211, 0.032858
317212.36262341676, -0.061763, -0.107974, -0.034754, -0.259707, 0.057625, 0.021123
317212.37244179175, -0.052049, -0.122636, -0.061359, -0.262581, 0.085391, 0.014847
317212.38261837506, -0.039613, -0.127153, -0.068431, -0.261027, 0.085962, 0.016361
317212.39251125004, -0.024701, -0.130805, -0.053904, -0.276205, 0.014554, 0.020391
317212.40248850005, -0.017334, -0.126185, -0.031075, -0.307743, -0.115510, 0.012689
317212.41253066674, -0.033457, -0.114489, -0.023243, -0.367621, -0.258159, -0.008930
317212.42250337504, -0.051616, -0.101103, -0.041620, -0.444832, -0.390892, -0.023848
317212.4325569584, -0.050750, -0.096532, -0.088620, -0.513328, -0.507522, -0.026064
317212.4424673751, -0.055030, -0.097911, -0.161319, -0.556863, -0.569912, -0.026753
317212.4525599167, -0.063648, -0.098841, -0.235729, -0.577851, -0.603571, -0.027763
317212.46254766674, -0.073490, -0.104225, -0.320674, -0.551199, -0.578193, -0.022855
317212.47261154174, -0.089584, -0.111142, -0.411300, -0.468338, -0.467013, -0.005051
317212.49273429177, -0.153662, -0.095807, -0.500502, -0.223977, -0.076992, 0.039482
317212.5025008751, -0.153457, -0.096701, -0.500129, -0.159922, 0.027982, 0.055113
317212.51250654174, -0.171871, -0.092419, -0.479369, -0.024508, 0.227450, 0.082447
317212.52249212505, -0.171826, -0.092861, -0.432812, 0.116497, 0.362855, 0.084560
317212.53253637505, -0.164322, -0.097322, -0.356677, 0.281627, 0.410005, 0.021873
317212.53253637505, -0.164322, -0.097322, -0.356677, 0.281627, 0.410005, 0.021873
317212.5517245834, -0.153104, -0.109841, -0.156946, 0.343239, 0.334183, -0.073136
317212.5625158751, -0.150518, -0.105472, -0.060251, 0.316598, 0.233313, -0.143331
317212.57253570843, -0.147893, -0.099976, 0.020064, 0.245104, 0.089001, -0.211100
317212.5822991667, -0.146785, -0.094274, 0.087329, 0.139624, -0.072572, -0.281681
317212.5925622501, -0.152853, -0.084833, 0.131838, 0.020245, -0.227700, -0.347339
317212.60184837505, -0.159742, -0.072196, 0.147647, -0.101017, -0.351290, -0.406056
317212.61250104173, -0.171027, -0.060206, 0.138986, -0.202801, -0.440941, -0.462219
317212.6225108334, -0.179703, -0.052207, 0.116947, -0.280434, -0.486122, -0.521038
317212.6325308751, -0.188311, -0.043877, 0.087329, -0.347329, -0.476526, -0.586404
317212.64262850006, -0.193551, -0.037093, 0.070611, -0.410842, -0.423153, -0.651110
317212.6517491667, -0.182632, -0.031926, 0.071023, -0.468918, -0.352633, -0.700155
317212.6625528334, -0.157563, -0.023404, 0.080305, -0.507237, -0.276805, -0.736766
317212.67167129176, -0.125836, -0.013900, 0.094457, -0.527537, -0.201286, -0.753728
317212.6825047917, -0.088102, -0.001096, 0.111929, -0.532627, -0.149852, -0.739865
317212.6925245834, -0.050166, 0.012078, 0.136866, -0.521068, -0.120776, -0.690143
317212.7124632084, 0.007995, 0.036349, 0.182995, -0.448912, -0.137394, -0.529299
317212.7124632084, 0.007995, 0.036349, 0.182995, -0.448912, -0.137394, -0.529299
317212.7225230001, 0.025828, 0.037540, 0.199031, -0.402710, -0.141662, -0.447545
317212.7225230001, 0.025828, 0.037540, 0.199031, -0.402710, -0.141662, -0.447545
317212.7225230001, 0.025828, 0.037540, 0.199031, -0.402710, -0.141662, -0.447545
317212.7225230001, 0.025828, 0.037540, 0.199031, -0.402710, -0.141662, -0.447545
317212.7225230001, 0.025828, 0.037540, 0.199031, -0.402710, -0.141662, -0.447545
317212.7225230001, 0.025828, 0.037540, 0.199031, -0.402710, -0.141662, -0.447545
317212.7225230001, 0.025828, 0.037540, 0.199031, -0.402710, -0.141662, -0.447545
317212.7225230001, 0.025828, 0.037540, 0.199031, -0.402710, -0.141662, -0.447545
317212.7225230001, 0.025828, 0.037540, 0.199031, -0.402710, -0.141662, -0.447545
317212.8224972084, 0.057107, -0.062916, 0.243966, 0.160090, -0.381194, -0.123304
317212.8325485001, 0.060317, -0.067693, 0.245765, 0.164419, -0.410445, -0.122466
317212.8425654167, 0.064633, -0.066650, 0.248414, 0.157156, -0.436307, -0.118853
317212.85172712506, 0.067055, -0.067428, 0.236908, 0.151192, -0.423171, -0.110143
317212.8623207084, 0.067397, -0.074873, 0.207901, 0.141446, -0.391458, -0.107626
317212.8724062084, 0.062970, -0.086541, 0.176091, 0.132279, -0.331919, -0.112896
317212.8825177084, 0.062858, -0.104735, 0.140771, 0.121885, -0.246830, -0.129911
317212.90178341675, 0.061571, -0.138467, 0.087236, 0.087216, -0.164097, -0.195283
317212.90178341675, 0.061571, -0.138467, 0.087236, 0.087216, -0.164097, -0.195283
317212.9125025834, 0.070824, -0.146803, 0.067002, 0.079099, -0.162805, -0.221291
317212.9225137917, 0.080836, -0.147312, 0.025766, 0.090532, -0.158771, -0.229006
317212.9417820834, 0.099808, -0.143229, -0.067499, 0.164040, -0.101082, -0.192327
317212.9525213334, 0.099506, -0.139286, -0.107299, 0.190589, -0.064343, -0.159058
317212.9625507084, 0.090262, -0.134090, -0.125917, 0.193789, -0.059219, -0.117916
317212.97225775005, 0.085132, -0.126485, -0.137435, 0.189558, -0.032391, -0.071451
317212.98205791676, 0.074157, -0.124496, -0.164509, 0.184722, 0.069829, -0.012077
317212.9926560001, 0.065912, -0.137456, -0.200898, 0.176456, 0.195440, 0.059609
317213.0025309167, 0.076710, -0.163863, -0.218380, 0.171498, 0.268133, 0.098745
317213.01252300007, 0.078499, -0.190343, -0.207579, 0.141678, 0.250067, 0.100030
317213.0225108334, 0.067409, -0.203856, -0.177467, 0.077892, 0.186264, 0.094463
317213.0325387084, 0.057070, -0.209069, -0.155806, -0.010601, 0.109638, 0.085217
317213.0425054584, 0.041655, -0.202113, -0.153606, -0.121779, -0.002618, 0.065267
317213.0516180001, 0.013081, -0.175938, -0.159541, -0.222462, -0.163267, 0.045613
317213.0626130417, -0.008768, -0.145772, -0.192306, -0.251320, -0.277829, 0.046715
317213.07248329173, -0.022944, -0.123354, -0.276423, -0.171444, -0.277256, 0.064413
317213.0824724584, -0.031261, -0.106321, -0.380130, -0.014495, -0.155344, 0.086629
317213.0925072084, -0.043489, -0.081199, -0.451306, 0.171950, 0.044210, 0.134145
317213.10216241673, -0.037278, -0.044991, -0.455717, 0.368301, 0.252585, 0.203532
317213.1124574167, -0.015860, -0.006673, -0.405623, 0.545016, 0.388627, 0.276345
317213.1225846667, 0.010236, 0.030589, -0.313341, 0.683099, 0.445647, 0.347453
317213.13259587507, 0.041186, 0.050775, -0.200681, 0.745733, 0.425902, 0.415262
317213.14198762504, 0.061219, 0.070535, -0.075480, 0.733978, 0.340636, 0.484560
317213.1516192501, 0.075738, 0.084995, 0.034526, 0.664000, 0.218744, 0.552506
317213.16244387504, 0.084532, 0.083100, 0.112112, 0.560978, 0.098393, 0.604069
317213.1723832501, 0.083844, 0.065704, 0.154597, 0.446312, -0.017160, 0.627109
317213.18230929173, 0.071039, 0.040724, 0.169876, 0.343156, -0.110072, 0.613568
317213.20170325006, 0.024956, -0.010666, 0.137309, 0.203663, -0.242873, 0.501313
317213.20170325006, 0.024956, -0.010666, 0.137309, 0.203663, -0.242873, 0.501313
317213.2124283751, 0.001240, -0.022068, 0.116127, 0.146968, -0.258689, 0.418586
317213.23262454174, -0.044025, -0.030026, 0.100986, 0.011422, -0.210164, 0.225531
317213.2424380417, -0.050544, -0.025936, 0.108938, -0.068897, -0.155850, 0.126612
317213.2424380417, -0.050544, -0.025936, 0.108938, -0.068897, -0.155850, 0.126612
317213.2516812084, -0.047022, -0.021718, 0.122505, -0.144889, -0.093006, 0.042661
317213.2516812084, -0.047022, -0.021718, 0.122505, -0.144889, -0.093006, 0.042661
317213.2516812084, -0.047022, -0.021718, 0.122505, -0.144889, -0.093006, 0.042661
317213.2516812084, -0.047022, -0.021718, 0.122505, -0.144889, -0.093006, 0.042661
317213.2516812084, -0.047022, -0.021718, 0.122505, -0.144889, -0.093006, 0.042661
317213.2516812084, -0.047022, -0.021718, 0.122505, -0.144889, -0.093006, 0.042661
317213.2516812084, -0.047022, -0.021718, 0.122505, -0.144889, -0.093006, 0.042661
317213.2516812084, -0.047022, -0.021718, 0.122505, -0.144889, -0.093006, 0.042661
317213.32251016673, 0.024034, 0.058581, 0.198564, -0.118291, 0.096781, -0.022541
317213.3421410001, 0.045403, 0.062683, 0.233115, -0.075556, 0.131773, 0.005963
317213.36249062506, 0.055385, 0.048640, 0.263165, -0.048841, 0.168988, 0.011688
317213.37254366674, 0.055040, 0.041972, 0.269650, -0.036556, 0.187856, 0.000709
317213.3825449584, 0.052663, 0.038912, 0.277179, -0.046792, 0.184079, -0.011512
317213.3925136251, 0.052458, 0.037080, 0.294644, -0.071403, 0.177741, -0.017483
317213.4023306667, 0.053097, 0.038039, 0.300591, -0.106193, 0.193753, -0.021741
317213.4125501667, 0.045512, 0.035103, 0.294834, -0.149172, 0.221089, -0.029115
317213.42251779174, 0.037274, 0.033279, 0.281591, -0.202240, 0.249947, -0.048775
317213.43252691673, 0.030195, 0.028941, 0.272430, -0.264521, 0.276183, -0.074346
317213.44254154176, 0.021389, 0.023086, 0.258535, -0.320135, 0.296550, -0.106886
317213.45234141673, 0.014673, 0.019514, 0.231132, -0.347593, 0.316194, -0.136477
317213.4725234584, 0.006111, 0.015973, 0.149186, -0.291473, 0.304945, -0.186362
317213.4825941251, 0.008130, 0.017118, 0.110807, -0.222566, 0.250179, -0.200910
317213.49250720843, 0.016084, 0.020926, 0.075721, -0.140758, 0.161969, -0.210243
317213.5023285417, 0.017580, 0.030592, 0.054870, -0.071396, 0.017091, -0.216041
317213.5117005001, 0.011150, 0.042877, 0.045267, -0.016964, -0.169163, -0.221518
317213.52251762507, 0.001968, 0.057957, 0.027422, 0.017873, -0.358519, -0.232159
317213.53252550005, -0.016812, 0.073204, -0.011705, 0.047303, -0.501497, -0.236004
317213.5423672084, -0.022236, 0.080907, -0.080808, 0.076109, -0.558315, -0.236770
317213.5423672084, -0.022236, 0.080907, -0.080808, 0.076109, -0.558315, -0.236770
317213.5625171667, -0.023264, 0.079427, -0.221821, 0.063985, -0.404532, -0.243528
317213.5724846667, -0.013522, 0.071016, -0.265527, -0.005243, -0.245916, -0.242968
317213.5825074584, -0.000178, 0.057292, -0.279278, -0.117455, -0.114326, -0.255618
317213.5924993334, 0.001270, 0.049239, -0.268625, -0.260735, -0.045570, -0.287086
317213.6017778334, -0.011128, 0.052350, -0.242866, -0.426783, -0.049576, -0.320379
317213.6124882501, -0.035285, 0.063996, -0.223316, -0.597565, -0.106194, -0.343885
317213.6225014584, -0.060451, 0.085158, -0.219714, -0.750861, -0.188186, -0.351149
317213.6325287084, -0.081864, 0.102801, -0.240099, -0.849526, -0.247915, -0.341781
317213.6415837501, -0.089753, 0.109481, -0.294970, -0.854552, -0.200304, -0.318334
317213.6524762084, -0.089942, 0.105334, -0.379136, -0.760969, 0.002971, -0.261014
317213.6718818751, -0.063066, 0.085752, -0.482015, -0.382845, 0.632526, -0.035866
317213.6824624584, -0.045701, 0.090654, -0.426196, -0.172498, 0.822353, 0.088938
317213.6925202084, -0.027010, 0.089489, -0.309427, 0.015810, 0.876465, 0.194118
317213.70233825006, -0.022627, 0.077709, -0.178943, 0.172335, 0.830930, 0.278982
317213.7120755834, -0.025921, 0.065508, -0.055068, 0.285074, 0.704146, 0.342432
317213.7220600834, -0.032166, 0.049085, 0.058698, 0.332437, 0.502109, 0.372512
317213.73253533343, -0.040931, 0.030880, 0.163336, 0.308289, 0.213256, 0.363326
317213.74249866675, -0.042256, 0.003092, 0.250259, 0.213160, -0.116782, 0.304981
317213.75231112505, -0.055589, -0.027537, 0.303871, 0.064642, -0.407497, 0.189697
317213.76252250007, -0.077276, -0.053843, 0.309564, -0.132522, -0.630907, 0.052713
317213.7725232084, -0.090090, -0.074626, 0.278413, -0.335529, -0.760414, -0.100225
317213.7725232084, -0.090090, -0.074626, 0.278413, -0.335529, -0.760414, -0.100225
317213.7725232084, -0.090090, -0.074626, 0.278413, -0.335529, -0.760414, -0.100225
317213.7725232084, -0.090090, -0.074626, 0.278413, -0.335529, -0.760414, -0.100225
317213.7725232084, -0.090090, -0.074626, 0.278413, -0.335529, -0.760414, -0.100225
317213.7725232084, -0.090090, -0.074626, 0.278413, -0.335529, -0.760414, -0.100225
317213.7725232084, -0.090090, -0.074626, 0.278413, -0.335529, -0.760414, -0.100225
317213.7725232084, -0.090090, -0.074626, 0.278413, -0.335529, -0.760414, -0.100225
317213.7725232084, -0.090090, -0.074626, 0.278413, -0.335529, -0.760414, -0.100225
317213.8425197084, -0.036381, -0.009059, -0.205229, -0.767279, 0.489335, -0.597797
317213.88196612505, 0.033866, 0.036807, 0.013548, -0.083432, 0.645348, -0.312009
317213.89251429174, 0.025408, 0.039603, 0.096270, 0.138496, 0.454771, -0.211217
317213.90256079176, 0.027237, 0.031557, 0.174281, 0.232484, 0.289779, -0.169523
317213.9124420834, 0.029827, 0.019991, 0.235752, 0.280388, 0.128081, -0.148450
317213.92250091676, 0.028295, 0.008523, 0.279479, 0.286822, -0.028842, -0.140868
317213.93252325006, 0.037654, -0.003849, 0.305606, 0.270896, -0.173801, -0.134406
317213.94244425005, 0.045759, -0.007780, 0.308597, 0.244572, -0.271649, -0.124619
317213.95256750006, 0.050442, -0.008445, 0.282811, 0.221095, -0.299175, -0.097411
317213.9625188334, 0.058205, -0.009820, 0.238487, 0.203406, -0.261817, -0.057794
317213.97240479174, 0.056960, -0.009383, 0.190226, 0.185749, -0.186745, -0.006725
317213.9824318334, 0.054239, -0.005738, 0.153829, 0.169044, -0.096961, 0.050996
317213.9926686251, 0.056293, -0.009944, 0.128340, 0.159928, 0.012864, 0.118598
317214.00257475005, 0.055763, -0.019775, 0.105184, 0.154007, 0.126221, 0.178870
317214.01243987505, 0.044830, -0.029297, 0.092298, 0.148325, 0.175613, 0.204057
317214.0225527501, 0.036919, -0.045897, 0.098334, 0.140345, 0.238984, 0.248768
317214.0326034167, 0.037762, -0.067152, 0.107083, 0.137497, 0.227347, 0.281868
317214.04253587505, 0.041229, -0.092077, 0.113114, 0.147641, 0.155540, 0.280082
317214.0525685834, 0.040162, -0.111354, 0.109525, 0.152542, 0.108438, 0.274150
317214.06247937505, 0.036416, -0.126113, 0.092308, 0.155596, 0.012363, 0.250855
317214.07256516675, 0.038134, -0.134231, 0.070779, 0.146441, -0.079336, 0.234767
317214.09165787505, 0.076996, -0.128443, -0.014514, 0.156329, -0.203047, 0.262268
317214.09165787505, 0.076996, -0.128443, -0.014514, 0.156329, -0.203047, 0.262268
317214.1016019167, 0.103439, -0.119933, -0.064542, 0.184016, -0.229282, 0.311715
317214.12252350006, 0.162296, -0.126086, -0.175649, 0.281575, -0.046733, 0.514099
317214.12252350006, 0.162296, -0.126086, -0.175649, 0.281575, -0.046733, 0.514099
317214.1425996667, 0.178447, -0.165146, -0.135933, 0.305608, -0.017822, 0.683544
317214.1516876251, 0.139937, -0.172400, -0.095821, 0.254254, -0.183833, 0.674246
317214.1516876251, 0.139937, -0.172400, -0.095821, 0.254254, -0.183833, 0.674246
317214.17259400006, 0.002621, -0.173945, -0.099870, -0.048374, -0.684814, 0.459525
317214.1825186667, -0.019721, -0.167994, -0.191960, -0.165073, -0.868965, 0.329668
317214.19251604174, -0.019670, -0.150312, -0.360395, -0.147797, -0.871122, 0.220381
317214.2025610001, -0.005980, -0.110579, -0.532848, -0.019939, -0.664055, 0.159164
317214.21182295843, 0.021980, -0.053579, -0.637648, 0.168849, -0.300692, 0.176488
317214.22252829175, 0.060915, 0.016442, -0.663630, 0.375735, 0.148791, 0.287372
317214.23252400005, 0.103115, 0.085954, -0.600984, 0.567478, 0.595964, 0.470284
317214.2425311251, 0.130612, 0.132523, -0.460213, 0.710509, 0.902108, 0.656961
317214.25256766676, 0.139992, 0.138327, -0.281657, 0.790408, 1.029643, 0.808620
317214.2625038334, 0.131808, 0.122355, -0.097126, 0.799294, 0.973278, 0.895687
317214.2724300834, 0.111512, 0.097263, 0.049646, 0.751537, 0.787621, 0.928250
317214.2825092084, 0.092286, 0.050910, 0.148941, 0.661411, 0.544493, 0.897587
317214.2925090834, 0.066504, 0.001066, 0.203923, 0.529326, 0.296637, 0.799824
317214.30258129176, 0.038266, -0.041195, 0.219079, 0.378901, 0.092654, 0.657942
317214.30258129176, 0.038266, -0.041195, 0.219079, 0.378901, 0.092654, 0.657942
317214.30258129176, 0.038266, -0.041195, 0.219079, 0.378901, 0.092654, 0.657942
317214.30258129176, 0.038266, -0.041195, 0.219079, 0.378901, 0.092654, 0.657942
317214.30258129176, 0.038266, -0.041195, 0.219079, 0.378901, 0.092654, 0.657942
317214.30258129176, 0.038266, -0.041195, 0.219079, 0.378901, 0.092654, 0.657942
317214.30258129176, 0.038266, -0.041195, 0.219079, 0.378901, 0.092654, 0.657942
317214.30258129176, 0.038266, -0.041195, 0.219079, 0.378901, 0.092654, 0.657942
317214.3725441251, 0.020095, 0.063652, 0.016921, -0.262698, 0.258196, 0.104801
317214.40257379174, 0.053252, 0.113506, 0.032826, -0.183464, 0.465247, 0.175904
317214.4124842084, 0.061630, 0.117847, 0.052740, -0.122866, 0.519710, 0.224041
317214.4225089584, 0.066441, 0.113760, 0.075299, -0.056591, 0.557153, 0.268653
317214.43251400004, 0.066288, 0.102175, 0.103134, 0.014868, 0.565140, 0.293535
317214.44251166674, 0.063963, 0.084452, 0.131648, 0.091788, 0.542660, 0.291885
317214.4525394584, 0.059337, 0.072760, 0.162877, 0.160052, 0.491881, 0.267613
317214.4625123334, 0.067298, 0.070300, 0.192012, 0.217608, 0.425027, 0.245511
317214.4725104584, 0.083222, 0.071863, 0.220965, 0.262702, 0.358556, 0.224391
317214.4825060001, 0.102094, 0.080223, 0.238164, 0.298476, 0.286870, 0.204893
317214.49251941673, 0.127950, 0.092298, 0.247739, 0.324537, 0.212835, 0.206142
317214.50247029174, 0.164145, 0.108649, 0.248206, 0.343791, 0.133277, 0.230142
317214.51243550004, 0.188176, 0.130726, 0.233171, 0.356434, 0.093362, 0.278012
317214.52250112506, 0.206888, 0.148990, 0.204894, 0.377449, 0.111232, 0.351210
317214.5325194584, 0.218977, 0.160649, 0.178300, 0.387014, 0.160715, 0.430637
317214.5414817084, 0.220262, 0.159448, 0.165600, 0.382779, 0.214232, 0.493981
317214.5525471251, 0.218517, 0.147060, 0.161109, 0.359059, 0.254812, 0.528835
317214.5624301251, 0.205196, 0.129010, 0.157888, 0.320928, 0.276055, 0.535099
317214.57251816674, 0.193208, 0.118204, 0.147324, 0.281808, 0.273791, 0.518968
317214.5824420834, 0.177455, 0.113006, 0.122551, 0.258628, 0.256201, 0.487073
317214.59164879174, 0.162208, 0.115283, 0.082940, 0.257434, 0.231171, 0.457704
317214.60257304175, 0.157987, 0.126618, 0.035312, 0.280106, 0.232468, 0.433977
317214.6124556251, 0.163908, 0.136580, -0.010248, 0.315377, 0.252442, 0.428238
317214.6325389584, 0.203692, 0.162672, -0.065805, 0.368934, 0.337369, 0.500345
317214.6416979584, 0.254933, 0.179450, -0.086208, 0.407625, 0.357015, 0.598840
317214.6416979584, 0.254933, 0.179450, -0.086208, 0.407625, 0.357015, 0.598840
317214.66247216676, 0.300118, 0.201998, -0.136230, 0.542173, 0.423472, 0.834856
317214.67254212504, 0.307420, 0.189282, -0.136698, 0.573848, 0.456721, 0.939819
317214.6824524584, 0.318569, 0.161135, -0.128904, 0.566615, 0.479336, 1.013829
317214.69167137507, 0.327045, 0.122067, -0.121517, 0.522902, 0.482792, 1.044197
317214.69167137507, 0.327045, 0.122067, -0.121517, 0.522902, 0.482792, 1.044197
317214.71176041674, 0.243127, 0.102167, -0.097026, 0.220085, 0.213471, 0.919887
317214.7225108751, 0.193683, 0.129523, -0.129953, 0.003254, 0.045378, 0.843060
317214.7322443334, 0.198828, 0.164322, -0.248763, -0.119886, -0.010143, 0.842730
317214.7416534584, 0.248946, 0.206257, -0.424088, -0.093208, 0.091232, 0.926542
317214.75251441676, 0.306533, 0.245408, -0.566329, 0.021290, 0.301233, 1.094846
317214.7625385001, 0.352111, 0.292347, -0.610111, 0.127523, 0.500123, 1.320947
317214.7725452501, 0.364635, 0.340219, -0.562437, 0.164115, 0.609642, 1.552323
317214.78253475006, 0.333737, 0.376633, -0.488697, 0.139296, 0.668022, 1.763988
317214.7918171667, 0.283421, 0.379028, -0.427956, 0.065711, 0.687717, 1.928952
317214.8022702917, 0.227723, 0.357592, -0.378916, -0.032088, 0.666087, 2.029244
317214.8124738334, 0.202522, 0.327654, -0.345514, -0.113535, 0.618261, 2.082093
317214.82251300005, 0.203651, 0.294686, -0.347244, -0.137515, 0.589781, 2.108964
317214.82251300005, 0.203651, 0.294686, -0.347244, -0.137515, 0.589781, 2.108964
317214.82251300005, 0.203651, 0.294686, -0.347244, -0.137515, 0.589781, 2.108964
317214.82251300005, 0.203651, 0.294686, -0.347244, -0.137515, 0.589781, 2.108964
317214.82251300005, 0.203651, 0.294686, -0.347244, -0.137515, 0.589781, 2.108964
317214.82251300005, 0.203651, 0.294686, -0.347244, -0.137515, 0.589781, 2.108964
317214.82251300005, 0.203651, 0.294686, -0.347244, -0.137515, 0.589781, 2.108964
317214.82251300005, 0.203651, 0.294686, -0.347244, -0.137515, 0.589781, 2.108964
317214.82251300005, 0.203651, 0.294686, -0.347244, -0.137515, 0.589781, 2.108964
317214.90252416674, 0.194471, 0.404170, -0.083993, 0.177798, 1.154811, 3.154276
317214.92251179175, 0.128543, 0.345036, 0.054301, 0.228086, 1.307935, 3.342379
317214.9325353334, 0.088539, 0.315176, 0.141613, 0.200442, 1.263262, 3.369638
317214.94185125007, 0.061735, 0.287967, 0.224294, 0.145015, 1.149975, 3.363391
317214.95244704175, 0.046670, 0.258019, 0.268737, 0.095697, 1.010247, 3.326346
317214.9625262917, 0.036490, 0.228896, 0.278020, 0.066292, 0.869606, 3.270253
317214.9725189584, 0.039277, 0.203015, 0.269565, 0.063372, 0.716278, 3.209208
317214.9825108334, 0.059526, 0.182822, 0.239771, 0.083067, 0.570747, 3.167574
317214.99205979175, 0.084537, 0.165985, 0.191590, 0.132210, 0.478147, 3.140972
317215.0025312084, 0.099406, 0.150829, 0.137402, 0.195267, 0.462234, 3.121716
317215.0124545834, 0.118240, 0.125819, 0.090859, 0.255002, 0.533131, 3.105026
317215.0325246251, 0.175926, 0.035347, 0.048119, 0.312287, 0.828372, 3.034823
317215.0325246251, 0.175926, 0.035347, 0.048119, 0.312287, 0.828372, 3.034823
317215.04190229176, 0.195236, -0.014964, 0.056524, 0.256815, 1.018064, 2.960005
317215.05253225006, 0.205406, -0.061158, 0.103069, 0.112950, 1.092550, 2.818880
317215.0725757084, 0.152414, -0.127336, 0.194240, -0.302734, 0.883224, 2.350775
317215.0725757084, 0.152414, -0.127336, 0.194240, -0.302734, 0.883224, 2.350775
317215.0824958751, 0.090056, -0.126222, 0.151485, -0.467349, 0.775765, 2.101356
317215.10252962506, -0.049150, -0.060654, -0.022238, -0.705697, 0.722397, 1.682986
317215.11249779176, -0.093606, -0.053973, -0.108982, -0.758450, 0.744353, 1.495036
317215.1224524584, -0.098751, -0.067373, -0.222297, -0.703993, 0.867097, 1.349106
317215.13252875005, -0.077381, -0.080091, -0.332080, -0.511558, 1.032339, 1.226354
317215.14205441676, -0.056363, -0.088944, -0.397212, -0.223323, 1.202466, 1.132494
317215.1524692501, -0.029895, -0.083145, -0.392246, 0.080767, 1.323864, 1.079383
317215.16243866674, -0.017806, -0.057592, -0.325759, 0.320468, 1.378678, 1.061071
317215.1725424167, -0.039557, -0.016917, -0.228350, 0.471126, 1.393318, 1.069714
317215.18243404175, -0.058913, 0.009562, -0.138236, 0.570616, 1.384079, 1.092685
317215.1920734584, -0.075875, 0.015614, -0.075236, 0.655695, 1.344376, 1.093353
317215.2025310001, -0.099246, 0.019077, -0.004679, 0.711421, 1.257187, 1.071258
317215.21244475007, -0.114859, 0.011995, 0.071624, 0.724576, 1.140415, 1.020890
317215.22253162507, -0.129972, -0.009567, 0.128336, 0.705024, 1.013079, 0.936480
317215.23252325004, -0.150245, -0.030073, 0.163665, 0.657464, 0.867340, 0.823230
317215.2420480417, -0.152583, -0.027385, 0.162746, 0.630668, 0.795396, 0.762723
317215.2524378751, -0.198661, -0.059423, 0.147169, 0.561874, 0.640143, 0.589603
317215.2625373334, -0.219025, -0.068696, 0.106371, 0.526828, 0.607035, 0.494876
317215.2721239167, -0.236203, -0.076419, 0.075050, 0.470713, 0.620935, 0.413456
317215.28245187504, -0.241737, -0.081988, 0.064180, 0.387392, 0.642792, 0.349458
317215.2922187084, -0.235980, -0.082499, 0.077636, 0.284486, 0.614417, 0.314673
317215.30260454176, -0.226256, -0.066670, 0.089214, 0.191198, 0.575874, 0.314175
317215.3125130417, -0.223030, -0.057516, 0.078311, 0.133846, 0.547253, 0.323167
317215.32256550004, -0.231532, -0.067287, 0.047624, 0.125626, 0.553654, 0.324629
317215.34219850006, -0.241161, -0.087151, 0.014949, 0.192019, 0.567281, 0.308753
317215.3524671667, -0.251525, -0.117264, 0.001307, 0.270519, 0.525864, 0.236319
317215.3524671667, -0.251525, -0.117264, 0.001307, 0.270519, 0.525864, 0.236319
317215.3524671667, -0.251525, -0.117264, 0.001307, 0.270519, 0.525864, 0.236319
317215.3524671667, -0.251525, -0.117264, 0.001307, 0.270519, 0.525864, 0.236319
317215.3524671667, -0.251525, -0.117264, 0.001307, 0.270519, 0.525864, 0.236319
317215.3524671667, -0.251525, -0.117264, 0.001307, 0.270519, 0.525864, 0.236319
317215.3524671667, -0.251525, -0.117264, 0.001307, 0.270519, 0.525864, 0.236319
317215.3524671667, -0.251525, -0.117264, 0.001307, 0.270519, 0.525864, 0.236319
317215.3524671667, -0.251525, -0.117264, 0.001307, 0.270519, 0.525864, 0.236319
317215.4225912084, -0.130260, -0.001062, 0.086972, -0.007089, 0.215444, 0.022104
317215.45249066676, -0.071376, 0.021764, 0.063437, -0.232647, -0.038054, 0.098418
317215.4626230834, -0.042964, 0.029422, 0.016282, -0.247103, -0.048134, 0.160582
317215.4726352084, -0.020390, 0.014833, -0.051999, -0.241921, -0.014676, 0.199332
317215.4825455834, -0.034097, 0.003703, -0.071686, -0.292619, -0.048635, 0.191965
317215.4922806251, -0.077718, 0.009444, -0.014888, -0.412276, -0.160684, 0.137873
317215.5025828334, -0.118369, 0.013230, 0.047715, -0.562221, -0.294218, 0.045694
317215.5125645001, -0.146057, 0.009842, 0.067470, -0.717401, -0.428584, -0.074399
317215.5226087084, -0.161847, 0.016941, 0.059199, -0.866991, -0.546201, -0.183733
317215.5325749584, -0.154676, 0.032627, 0.027612, -1.006656, -0.624178, -0.279198
317215.5423437084, -0.142716, 0.055603, -0.022477, -1.121039, -0.641905, -0.342593
317215.55262691673, -0.122304, 0.081064, -0.097831, -1.153272, -0.541777, -0.369268
317215.56254366675, -0.094367, 0.095385, -0.201723, -1.084958, -0.330517, -0.360054
317215.5725626667, -0.058864, 0.106760, -0.296719, -0.930890, -0.065140, -0.305659
317215.5819303751, -0.012532, 0.123393, -0.347891, -0.726784, 0.187405, -0.211208
317215.59245054174, 0.025303, 0.145608, -0.345607, -0.506097, 0.403877, -0.087018
317215.60252029175, 0.046836, 0.162505, -0.295998, -0.299818, 0.549312, 0.048618
317215.6124212084, 0.045532, 0.169183, -0.216908, -0.118349, 0.625631, 0.174173
317215.6225632501, 0.031851, 0.155478, -0.130051, 0.045390, 0.650397, 0.267964
317215.63253075007, 0.010907, 0.126812, -0.047450, 0.181849, 0.652666, 0.316611
317215.64245662506, -0.020144, 0.094321, 0.036067, 0.247953, 0.591839, 0.317441
317215.6525757501, -0.047127, 0.064871, 0.133957, 0.224465, 0.450725, 0.274405
317215.6625689584, -0.071668, 0.035042, 0.232521, 0.121719, 0.258946, 0.182412
317215.6725692917, -0.101093, -0.000018, 0.303488, -0.029165, 0.058405, 0.050769
317215.6825026667, -0.119702, -0.036203, 0.333423, -0.195276, -0.114649, -0.107581
317215.7025237501, -0.144404, -0.073983, 0.294318, -0.497509, -0.324533, -0.442572
317215.71247041674, -0.146094, -0.070697, 0.241885, -0.575705, -0.363957, -0.574457
317215.7220967084, -0.120804, -0.060868, 0.177346, -0.626210, -0.380509, -0.659369
317215.73244666675, -0.092104, -0.043929, 0.138978, -0.691319, -0.403461, -0.690429
317215.7424938751, -0.057320, -0.024594, 0.130571, -0.761805, -0.428047, -0.678323
317215.7525135834, -0.028942, -0.017469, 0.115854, -0.817365, -0.420161, -0.647154
317215.76183200005, -0.009282, -0.024899, 0.080324, -0.844975, -0.361722, -0.603411
317215.77253891673, 0.011899, -0.041993, 0.042175, -0.825143, -0.281939, -0.554118
317215.7824952084, 0.034615, -0.061338, 0.007221, -0.761825, -0.175725, -0.508927
317215.7926548751, 0.056419, -0.085889, -0.020467, -0.672985, -0.067957, -0.455202
317215.8025379584, 0.084869, -0.109285, -0.021521, -0.575890, -0.006346, -0.385552
317215.81255116675, 0.114281, -0.119505, 0.006424, -0.479685, 0.007710, -0.297601
317215.8226000001, 0.135686, -0.120252, 0.043054, -0.392556, -0.013664, -0.179593
317215.83258229174, 0.153733, -0.122162, 0.073022, -0.307013, -0.045292, -0.039427
317215.84257662506, 0.162973, -0.132740, 0.094596, -0.227573, -0.074670, 0.107197
317215.8524667501, 0.167079, -0.156017, 0.113794, -0.157396, -0.121716, 0.233453
317215.8625990834, 0.162678, -0.193827, 0.128066, -0.085648, -0.159900, 0.325941
317215.8726190001, 0.155389, -0.238256, 0.131976, -0.013559, -0.192569, 0.385304
317215.8726190001, 0.155389, -0.238256, 0.131976, -0.013559, -0.192569, 0.385304
317215.8726190001, 0.155389, -0.238256, 0.131976, -0.013559, -0.192569, 0.385304
317215.8726190001, 0.155389, -0.238256, 0.131976, -0.013559, -0.192569, 0.385304
317215.8726190001, 0.155389, -0.238256, 0.131976, -0.013559, -0.192569, 0.385304
317215.8726190001, 0.155389, -0.238256, 0.131976, -0.013559, -0.192569, 0.385304
317215.8726190001, 0.155389, -0.238256, 0.131976, -0.013559, -0.192569, 0.385304
317215.8726190001, 0.155389, -0.238256, 0.131976, -0.013559, -0.192569, 0.385304
317215.8726190001, 0.155389, -0.238256, 0.131976, -0.013559, -0.192569, 0.385304
317215.9525057084, -0.096681, -0.316624, 0.090741, 0.316301, -0.085986, -0.013378
317215.9725849584, -0.075946, -0.310440, 0.045401, 0.378462, -0.000617, -0.219298
317215.9817409584, -0.042578, -0.298619, 0.032532, 0.430175, -0.025453, -0.297926
317215.9926065834, -0.000058, -0.276111, 0.027521, 0.473059, -0.108644, -0.343614
317216.0025458751, 0.037288, -0.243210, 0.023552, 0.514193, -0.227014, -0.353190
317216.0125442084, 0.061173, -0.202099, 0.001726, 0.558911, -0.317024, -0.323030
317216.0216591667, 0.076511, -0.162684, -0.042773, 0.595071, -0.364900, -0.276326
317216.0325528334, 0.071916, -0.131573, -0.088349, 0.617424, -0.391465, -0.225818
317216.0425889167, 0.060812, -0.110000, -0.125472, 0.633243, -0.379407, -0.176633
317216.05254187505, 0.062372, -0.104020, -0.171292, 0.645817, -0.337677, -0.129958
317216.0621548751, 0.079275, -0.103690, -0.216715, 0.669493, -0.306403, -0.070839
317216.07258641673, 0.106844, -0.098872, -0.247059, 0.658653, -0.313047, -0.018443
317216.0825740834, 0.109455, -0.081195, -0.246225, 0.566961, -0.342602, 0.021415
317216.09252241673, 0.093618, -0.052952, -0.219497, 0.386297, -0.359381, 0.060043
317216.1124015834, 0.067153, -0.024198, -0.229347, -0.020174, -0.246932, 0.116202
317216.1225790834, 0.056496, -0.029059, -0.290498, -0.129689, -0.087556, 0.131263
317216.13264137506, 0.046573, -0.026733, -0.358907, -0.157502, 0.095813, 0.149477
317216.13264137506, 0.046573, -0.026733, -0.358907, -0.157502, 0.095813, 0.149477
317216.15265650005, 0.064873, 0.006214, -0.397318, -0.010807, 0.386073, 0.229672
317216.16258229176, 0.080916, 0.033285, -0.357239, 0.094278, 0.414132, 0.284639
317216.1718704584, 0.090512, 0.065131, -0.285677, 0.186933, 0.383779, 0.367335
317216.18255366676, 0.109789, 0.093767, -0.211617, 0.262017, 0.297043, 0.485941
317216.18255366676, 0.109789, 0.093767, -0.211617, 0.262017, 0.297043, 0.485941
317216.2025247501, 0.153281, 0.117516, -0.089783, 0.379582, 0.016700, 0.754909
317216.2115915417, 0.152859, 0.104847, -0.059939, 0.414731, -0.093576, 0.857169
317216.2225640834, 0.136980, 0.085885, -0.040431, 0.420977, -0.158325, 0.926031
317216.23267254175, 0.110462, 0.057963, -0.029590, 0.413602, -0.173053, 0.946997
317216.2426115001, 0.066464, 0.021269, -0.031672, 0.397880, -0.127581, 0.905566
317216.2525425001, 0.008786, -0.014573, -0.034238, 0.357022, -0.060288, 0.810607
317216.26252612507, -0.038922, -0.044242, -0.015322, 0.291608, -0.013505, 0.679999
317216.2725904167, -0.067720, -0.062378, 0.018348, 0.216769, 0.027011, 0.539825
317216.2826158334, -0.089075, -0.057790, 0.044998, 0.148408, 0.055583, 0.404116
317216.2925664167, -0.095179, -0.042765, 0.061191, 0.094113, 0.079884, 0.294533
317216.3026298751, -0.090557, -0.019671, 0.074023, 0.057941, 0.089351, 0.206755
317216.3119767084, -0.077527, 0.004328, 0.085970, 0.042973, 0.108838, 0.160254
317216.32254350005, -0.057243, 0.030715, 0.087171, 0.053429, 0.131232, 0.143916
317216.3326297501, -0.038426, 0.048799, 0.087079, 0.089528, 0.178616, 0.146770
317216.3425427084, -0.023487, 0.059762, 0.085868, 0.151059, 0.256067, 0.171318
317216.35249266675, -0.008358, 0.064244, 0.085061, 0.232290, 0.349434, 0.198254
317216.35249266675, -0.008358, 0.064244, 0.085061, 0.232290, 0.349434, 0.198254
317216.35249266675, -0.008358, 0.064244, 0.085061, 0.232290, 0.349434, 0.198254
317216.35249266675, -0.008358, 0.064244, 0.085061, 0.232290, 0.349434, 0.198254
317216.35249266675, -0.008358, 0.064244, 0.085061, 0.232290, 0.349434, 0.198254
317216.35249266675, -0.008358, 0.064244, 0.085061, 0.232290, 0.349434, 0.198254
317216.35249266675, -0.008358, 0.064244, 0.085061, 0.232290, 0.349434, 0.198254
317216.35249266675, -0.008358, 0.064244, 0.085061, 0.232290, 0.349434, 0.198254
317216.35249266675, -0.008358, 0.064244, 0.085061, 0.232290, 0.349434, 0.198254
317216.35249266675, -0.008358, 0.064244, 0.085061, 0.232290, 0.349434, 0.198254
317216.35249266675, -0.008358, 0.064244, 0.085061, 0.232290, 0.349434, 0.198254
317216.35249266675, -0.008358, 0.064244, 0.085061, 0.232290, 0.349434, 0.198254
317216.35249266675, -0.008358, 0.064244, 0.085061, 0.232290, 0.349434, 0.198254
317216.43254729174, 0.023873, 0.081822, 0.364822, 0.656698, 0.307165, 0.158484
317216.4924019167, 0.043517, 0.079658, 0.323529, 0.394912, -0.005107, 0.088453
317216.5116318334, 0.034853, 0.093298, 0.299676, 0.194033, -0.123484, 0.064326
317216.5116318334, 0.034853, 0.093298, 0.299676, 0.194033, -0.123484, 0.064326
317216.5116318334, 0.034853, 0.093298, 0.299676, 0.194033, -0.123484, 0.064326
317216.5224477917, 0.031226, 0.099112, 0.299983, 0.061333, -0.232035, 0.051827
317216.5525982501, -0.012223, 0.071339, 0.131022, -0.214377, -0.483796, -0.077056
317216.5626058334, -0.036538, 0.066849, 0.043563, -0.254512, -0.503937, -0.115595
317216.5717242501, -0.046650, 0.064886, -0.073829, -0.250748, -0.413671, -0.131997
317216.58254554175, -0.050975, 0.066158, -0.202225, -0.220320, -0.242740, -0.139430
317216.6025279167, -0.070870, 0.076357, -0.323825, -0.241816, 0.106504, -0.104796
317216.61254825006, -0.069382, 0.080739, -0.315081, -0.289876, 0.261165, -0.051059
317216.6217376667, -0.049157, 0.057820, -0.301858, -0.321694, 0.390510, 0.004713
317216.6217376667, -0.049157, 0.057820, -0.301858, -0.321694, 0.390510, 0.004713
317216.6426123751, -0.034261, -0.006970, -0.250798, -0.320958, 0.407382, 0.006072
317216.65256887506, -0.033070, -0.039265, -0.219462, -0.341043, 0.319432, -0.025709
317216.6626042501, -0.029757, -0.066199, -0.184747, -0.403611, 0.197937, -0.081195
317216.6626042501, -0.029757, -0.066199, -0.184747, -0.403611, 0.197937, -0.081195
317216.6626042501, -0.029757, -0.066199, -0.184747, -0.403611, 0.197937, -0.081195
317216.69252304174, -0.099113, -0.044252, -0.118740, -0.799302, -0.275721, -0.259647
317216.70265454176, -0.114565, -0.030002, -0.189635, -0.855121, -0.213051, -0.277601
317216.7125511251, -0.103854, -0.035932, -0.300043, -0.811599, -0.012755, -0.275563
317216.72155579174, -0.092787, -0.038711, -0.401612, -0.757101, 0.119402, -0.268230
317216.73255966674, -0.072791, -0.042676, -0.451768, -0.505956, 0.464361, -0.201404
317216.7426130417, -0.042967, -0.034622, -0.421187, -0.320551, 0.569439, -0.126281
317216.7526120417, -0.018703, -0.022124, -0.335298, -0.133999, 0.572150, -0.053680
317216.76263291674, -0.012848, -0.015183, -0.232911, 0.039302, 0.493953, -0.003044
317216.76263291674, -0.012848, -0.015183, -0.232911, 0.039302, 0.493953, -0.003044
317216.76263291674, -0.012848, -0.015183, -0.232911, 0.039302, 0.493953, -0.003044
317216.79253737506, -0.059233, -0.017741, 0.054439, 0.312043, -0.080140, -0.053382
317216.81159825006, -0.089983, -0.011256, 0.188688, 0.265572, -0.376689, -0.173370
317216.81159825006, -0.089983, -0.011256, 0.188688, 0.265572, -0.376689, -0.173370
317216.8324787501, -0.099521, 0.020356, 0.232238, -0.037851, -0.522875, -0.352030
317216.84262191673, -0.087147, 0.035325, 0.234963, -0.176766, -0.486003, -0.391220
317216.8524629584, -0.074244, 0.042371, 0.218306, -0.292161, -0.399532, -0.419433
317216.8524629584, -0.074244, 0.042371, 0.218306, -0.292161, -0.399532, -0.419433
317216.8524629584, -0.074244, 0.042371, 0.218306, -0.292161, -0.399532, -0.419433
317216.8524629584, -0.074244, 0.042371, 0.218306, -0.292161, -0.399532, -0.419433
317216.8524629584, -0.074244, 0.042371, 0.218306, -0.292161, -0.399532, -0.419433
317216.8524629584, -0.074244, 0.042371, 0.218306, -0.292161, -0.399532, -0.419433
317216.8524629584, -0.074244, 0.042371, 0.218306, -0.292161, -0.399532, -0.419433
317216.8524629584, -0.074244, 0.042371, 0.218306, -0.292161, -0.399532, -0.419433
317216.8524629584, -0.074244, 0.042371, 0.218306, -0.292161, -0.399532, -0.419433
317216.8524629584, -0.074244, 0.042371, 0.218306, -0.292161, -0.399532, -0.419433
317216.8524629584, -0.074244, 0.042371, 0.218306, -0.292161, -0.399532, -0.419433
317216.8524629584, -0.074244, 0.042371, 0.218306, -0.292161, -0.399532, -0.419433
317216.8524629584, -0.074244, 0.042371, 0.218306, -0.292161, -0.399532, -0.419433
317216.8524629584, -0.074244, 0.042371, 0.218306, -0.292161, -0.399532, -0.419433
317216.8524629584, -0.074244, 0.042371, 0.218306, -0.292161, -0.399532, -0.419433
317216.8524629584, -0.074244, 0.042371, 0.218306, -0.292161, -0.399532, -0.419433
317216.99259562505, -0.021266, -0.009771, 0.314085, 0.225202, -0.308340, -0.106961
317217.0325633751, -0.030368, -0.028462, 0.112021, 0.046893, -0.132652, -0.186950
317217.0425515001, -0.029287, -0.024353, 0.067492, 0.020220, 0.018144, -0.176204
317217.0425515001, -0.029287, -0.024353, 0.067492, 0.020220, 0.018144, -0.176204
317217.0625787084, -0.025824, -0.012105, 0.030472, -0.046608, 0.346238, -0.100364
317217.0725525834, -0.016590, -0.013234, 0.042122, -0.073711, 0.430220, -0.057301
317217.0725525834, -0.016590, -0.013234, 0.042122, -0.073711, 0.430220, -0.057301
317217.0725525834, -0.016590, -0.013234, 0.042122, -0.073711, 0.430220, -0.057301
317217.0725525834, -0.016590, -0.013234, 0.042122, -0.073711, 0.430220, -0.057301
317217.11270016676, -0.020350, -0.037386, 0.035374, -0.135216, 0.140923, 0.070186
317217.1225451251, -0.029550, -0.044630, -0.025049, -0.120299, 0.037962, 0.087412
317217.1325367084, -0.025435, -0.058226, -0.107120, -0.060802, -0.031225, 0.116053
317217.1425453334, -0.012850, -0.068318, -0.182140, 0.026037, -0.070146, 0.148806
317217.1526612917, 0.008553, -0.067518, -0.245500, 0.125479, -0.012801, 0.210714
317217.16249262507, 0.047918, -0.078168, -0.289407, 0.219206, 0.124399, 0.304082
317217.17258837505, 0.081289, -0.092394, -0.279088, 0.274047, 0.193406, 0.379368
317217.18250150006, 0.080734, -0.099653, -0.226461, 0.272031, 0.154243, 0.402537
317217.19251212507, 0.063117, -0.100205, -0.175956, 0.195141, 0.087555, 0.392916
317217.19251212507, 0.063117, -0.100205, -0.175956, 0.195141, 0.087555, 0.392916
317217.19251212507, 0.063117, -0.100205, -0.175956, 0.195141, 0.087555, 0.392916
317217.2225574167, -0.017989, -0.044647, -0.136351, -0.438320, -0.300374, 0.277665
317217.23252091673, -0.037587, -0.022761, -0.213065, -0.625686, -0.357652, 0.255939
317217.24251904176, -0.038766, -0.019575, -0.348952, -0.670565, -0.284931, 0.250897
317217.2525272501, -0.033499, -0.032606, -0.500006, -0.559172, -0.059706, 0.267547
317217.2625301251, -0.015289, -0.035204, -0.586280, -0.337391, 0.225623, 0.305178
317217.27255900006, 0.010503, -0.014806, -0.569709, -0.089863, 0.447227, 0.376066
317217.2826033334, 0.042360, 0.001861, -0.442834, 0.099257, 0.501227, 0.446005
317217.3025349584, 0.040209, 0.015797, -0.145113, 0.269835, 0.239803, 0.510749
317217.3025349584, 0.040209, 0.015797, -0.145113, 0.269835, 0.239803, 0.510749
317217.3025349584, 0.040209, 0.015797, -0.145113, 0.269835, 0.239803, 0.510749
317217.3025349584, 0.040209, 0.015797, -0.145113, 0.269835, 0.239803, 0.510749
317217.3025349584, 0.040209, 0.015797, -0.145113, 0.269835, 0.239803, 0.510749
317217.3025349584, 0.040209, 0.015797, -0.145113, 0.269835, 0.239803, 0.510749
317217.3025349584, 0.040209, 0.015797, -0.145113, 0.269835, 0.239803, 0.510749
317217.3025349584, 0.040209, 0.015797, -0.145113, 0.269835, 0.239803, 0.510749
317217.3025349584, 0.040209, 0.015797, -0.145113, 0.269835, 0.239803, 0.510749
317217.3025349584, 0.040209, 0.015797, -0.145113, 0.269835, 0.239803, 0.510749
317217.3025349584, 0.040209, 0.015797, -0.145113, 0.269835, 0.239803, 0.510749
317217.3025349584, 0.040209, 0.015797, -0.145113, 0.269835, 0.239803, 0.510749
317217.3025349584, 0.040209, 0.015797, -0.145113, 0.269835, 0.239803, 0.510749
317217.3025349584, 0.040209, 0.015797, -0.145113, 0.269835, 0.239803, 0.510749
317217.3025349584, 0.040209, 0.015797, -0.145113, 0.269835, 0.239803, 0.510749
317217.3025349584, 0.040209, 0.015797, -0.145113, 0.269835, 0.239803, 0.510749
317217.3025349584, 0.040209, 0.015797, -0.145113, 0.269835, 0.239803, 0.510749
317217.3025349584, 0.040209, 0.015797, -0.145113, 0.269835, 0.239803, 0.510749
317217.3025349584, 0.040209, 0.015797, -0.145113, 0.269835, 0.239803, 0.510749
317217.3025349584, 0.040209, 0.015797, -0.145113, 0.269835, 0.239803, 0.510749
317217.3025349584, 0.040209, 0.015797, -0.145113, 0.269835, 0.239803, 0.510749
317217.3025349584, 0.040209, 0.015797, -0.145113, 0.269835, 0.239803, 0.510749
317217.3025349584, 0.040209, 0.015797, -0.145113, 0.269835, 0.239803, 0.510749
317217.5225242917, 0.019198, 0.051645, 0.314472, 0.504244, -0.098932, 0.245823
317217.5225242917, 0.019198, 0.051645, 0.314472, 0.504244, -0.098932, 0.245823
317217.5225242917, 0.019198, 0.051645, 0.314472, 0.504244, -0.098932, 0.245823
317217.57261379174, 0.048900, 0.048678, 0.314124, 0.507864, -0.242996, 0.215233
317217.5825231667, 0.045875, 0.041058, 0.319936, 0.454777, -0.294209, 0.183381
317217.5925951251, 0.031501, 0.037703, 0.315277, 0.388061, -0.339100, 0.142021
317217.6025495834, 0.016114, 0.031659, 0.293645, 0.318068, -0.376236, 0.087427
317217.61226679175, 0.005158, 0.022358, 0.269057, 0.239192, -0.393375, 0.025450
317217.6225502917, 0.000358, 0.018400, 0.241618, 0.143870, -0.396454, -0.039794
317217.6325325834, -0.005295, 0.018546, 0.213147, 0.027145, -0.382477, -0.111398
317217.6426022501, -0.005428, 0.013027, 0.182866, -0.104483, -0.366265, -0.189225
317217.6526880834, -0.005147, 0.003911, 0.137874, -0.225370, -0.350279, -0.269716
317217.66259212507, -0.008175, 0.001915, 0.073789, -0.309025, -0.331802, -0.347400
317217.6725934584, -0.015304, 0.003480, -0.002084, -0.356391, -0.295025, -0.415897
317217.6818115834, -0.036892, 0.011991, -0.072874, -0.382247, -0.237127, -0.475597
317217.6818115834, -0.036892, 0.011991, -0.072874, -0.382247, -0.237127, -0.475597
317217.6818115834, -0.036892, 0.011991, -0.072874, -0.382247, -0.237127, -0.475597
317217.7125488334, -0.062704, 0.017493, -0.247467, -0.315149, -0.042967, -0.604938
317217.7325174584, -0.015541, -0.000441, -0.275171, -0.216143, 0.148958, -0.609330
317217.74255366676, 0.012761, -0.009056, -0.283107, -0.146060, 0.228376, -0.603205
317217.75256379176, 0.035859, -0.021023, -0.303154, -0.068796, 0.321447, -0.590210
317217.7625333334, 0.051936, -0.026154, -0.266662, -0.052345, 0.312710, -0.566295
317217.7625333334, 0.051936, -0.026154, -0.266662, -0.052345, 0.312710, -0.566295
317217.7725511667, 0.048144, -0.000676, -0.167593, -0.152142, 0.133223, -0.531842
317217.78260654176, 0.025259, 0.045019, -0.051432, -0.373466, -0.233219, -0.487775
317217.78260654176, 0.025259, 0.045019, -0.051432, -0.373466, -0.233219, -0.487775
317217.78260654176, 0.025259, 0.045019, -0.051432, -0.373466, -0.233219, -0.487775
317217.8123897084, -0.032502, 0.096622, -0.298957, -0.823876, -0.649722, -0.242498
317217.8226560834, -0.047281, 0.060400, -0.478122, -0.726900, -0.379541, -0.197482
317217.83256129175, -0.058220, 0.037179, -0.576759, -0.567925, -0.043584, -0.153966
317217.8524858334, -0.019398, 0.059770, -0.548106, -0.157744, 0.512379, 0.020544
317217.86256200005, 0.001082, 0.089074, -0.439034, 0.039031, 0.630941, 0.151096
317217.8726463334, 0.005088, 0.109588, -0.304580, 0.209899, 0.623959, 0.281224
317217.8925441251, -0.024362, 0.089224, -0.077361, 0.443570, 0.344476, 0.440471
317217.9025612084, -0.061872, 0.070845, 0.027848, 0.437566, 0.112474, 0.443104
317217.9025612084, -0.061872, 0.070845, 0.027848, 0.437566, 0.112474, 0.443104
317217.9125721251, -0.103135, 0.043202, 0.118405, 0.338688, -0.127277, 0.380670
317217.9225158751, -0.146626, 0.011199, 0.164183, 0.174195, -0.309185, 0.267776
317217.9425320001, -0.205966, -0.047532, 0.105087, -0.189878, -0.299943, -0.042753
317217.9525244584, -0.209955, -0.059880, 0.053471, -0.341260, -0.121632, -0.193924
317217.9625142501, -0.188541, -0.061089, 0.015419, -0.441536, 0.113295, -0.310086
317217.9725694584, -0.163465, -0.045212, 0.002290, -0.489820, 0.365887, -0.381831
317217.9818614584, -0.134231, -0.020044, 0.020037, -0.487286, 0.561907, -0.405217
317217.9925569584, -0.094707, -0.000779, 0.055475, -0.436385, 0.696519, -0.387442
317218.00247087504, -0.068257, 0.008722, 0.101802, -0.352197, 0.753328, -0.353358
317218.0125017084, -0.051083, 0.016742, 0.150308, -0.233154, 0.743538, -0.295440
317218.0225937501, -0.040160, 0.020079, 0.189170, -0.076758, 0.689291, -0.232617
317218.03256758343, -0.038699, 0.024383, 0.227151, 0.085208, 0.591289, -0.172546
317218.04253562505, -0.039472, 0.023818, 0.279477, 0.209271, 0.451369, -0.121377
317218.0525635834, -0.041658, 0.018718, 0.331782, 0.282385, 0.288749, -0.086209
317218.0626044584, -0.045208, 0.009714, 0.362427, 0.309309, 0.140696, -0.066167
317218.0723640001, -0.043508, -0.006929, 0.372959, 0.291856, 0.029161, -0.055576
317218.08256654174, -0.039898, -0.026404, 0.365418, 0.245573, -0.025652, -0.056373
317218.0925872084, -0.037761, -0.040584, 0.352660, 0.174056, -0.047420, -0.063982
317218.1025845834, -0.041925, -0.054175, 0.338300, 0.086776, -0.049197, -0.086419
317218.1126384584, -0.047211, -0.063461, 0.316000, -0.003589, -0.050899, -0.112028
317218.1225171667, -0.036783, -0.068112, 0.287444, -0.075926, -0.077029, -0.123626
317218.1325174584, -0.018608, -0.065033, 0.238771, -0.104016, -0.108128, -0.105474
317218.1425350834, 0.003192, -0.060615, 0.173745, -0.080797, -0.120285, -0.056147
317218.15266216674, 0.014309, -0.055167, 0.109941, -0.018201, -0.102037, 0.007466
317218.1716730001, 0.012461, -0.053570, 0.066938, 0.081864, -0.060058, 0.090350
317218.18163979176, -0.002080, -0.059008, 0.048382, 0.121299, -0.037433, 0.115365
317218.1924486667, -0.027549, -0.087644, 0.033643, 0.152326, -0.039178, 0.099653
317218.2025100417, -0.025826, -0.100494, 0.015552, 0.172180, -0.072282, 0.074031
317218.21245875006, -0.027748, -0.096779, -0.011393, 0.195395, -0.085989, 0.044599
317218.22212016676, -0.027286, -0.095839, -0.011741, 0.204849, -0.080455, 0.036199
317218.23258937505, -0.022623, -0.079219, -0.046151, 0.199120, -0.061783, 0.033547
317218.2425877501, -0.008422, -0.063517, -0.047539, 0.162988, -0.069856, 0.050440
317218.2525218751, 0.012455, -0.049535, -0.057405, 0.115028, -0.097951, 0.089682
317218.26256566675, 0.038853, -0.038744, -0.085635, 0.080131, -0.116743, 0.153852
317218.2718735834, 0.039677, -0.038411, -0.085783, 0.071981, -0.106004, 0.193553
317218.28256862506, 0.083452, -0.045320, -0.181272, 0.073212, -0.007344, 0.334009
317218.2925680417, 0.098563, -0.061390, -0.216978, 0.097768, 0.041009, 0.411117
317218.3025948334, 0.087463, -0.071426, -0.222345, 0.115061, 0.038968, 0.459814
317218.3126652084, 0.061518, -0.082803, -0.213773, 0.094267, 0.005626, 0.478487
317218.3222328334, 0.062403, -0.082523, -0.213911, 0.061301, -0.027604, 0.477947
317218.33255725005, -0.006921, -0.085829, -0.193082, -0.100114, -0.184753, 0.445674
317218.3425850001, -0.028223, -0.083798, -0.222865, -0.196852, -0.258707, 0.416686
317218.3625163334, -0.045076, -0.082535, -0.298129, -0.192476, -0.229053, 0.369052
317218.37248687504, -0.052635, -0.079400, -0.384237, -0.090062, -0.105298, 0.365720
317218.3824983751, -0.045748, -0.078548, -0.448729, 0.062867, 0.061046, 0.381878
317218.3925746667, -0.042972, -0.061208, -0.466110, 0.235660, 0.247034, 0.412951
317218.4025905834, -0.035150, -0.041025, -0.433466, 0.388614, 0.389858, 0.449501
317218.4125362501, -0.015860, -0.026851, -0.344137, 0.497430, 0.428784, 0.463423
317218.4226003334, 0.000657, -0.026263, -0.222888, 0.557353, 0.364869, 0.447523
317218.43258500006, 0.012585, -0.034432, -0.111802, 0.556820, 0.243211, 0.411123
317218.44263775006, 0.010834, -0.039228, -0.018282, 0.498056, 0.075352, 0.365312
317218.4525485001, 0.009259, -0.045171, 0.047716, 0.412369, -0.091922, 0.308403
317218.4625777084, 0.002138, -0.052312, 0.073470, 0.319994, -0.206447, 0.240692
317218.47256812506, -0.009589, -0.059868, 0.067088, 0.229177, -0.269357, 0.158455
317218.48260637507, -0.023478, -0.066736, 0.051250, 0.145702, -0.283595, 0.072326
317218.4925644167, -0.038092, -0.069467, 0.031517, 0.066690, -0.240570, -0.029547
317218.5015485417, -0.057272, -0.065864, 0.017518, -0.010825, -0.179292, -0.137110
317218.5127046251, -0.073587, -0.052914, 0.021830, -0.091717, -0.122006, -0.239191
317218.52247916674, -0.083387, -0.033977, 0.035865, -0.174424, -0.062085, -0.328307
317218.5325158334, -0.084761, -0.007768, 0.048045, -0.249578, 0.009083, -0.390083
317218.54253216676, -0.071099, 0.014489, 0.054816, -0.285957, 0.074382, -0.410664
317218.5525109167, -0.043912, 0.034620, 0.050058, -0.261141, 0.147382, -0.396870
317218.56257112505, -0.019370, 0.050199, 0.038328, -0.195005, 0.200018, -0.361374
317218.57257475005, -0.010081, 0.069911, 0.042693, -0.112700, 0.220966, -0.310506
317218.5824842084, -0.007574, 0.086965, 0.057348, -0.012553, 0.248179, -0.239058
317218.6026013334, 0.003027, 0.091058, 0.079032, 0.242830, 0.306270, -0.109870
317218.6126714167, 0.002117, 0.087544, 0.099712, 0.378919, 0.320505, -0.064742
317218.62253466673, 0.009981, 0.078475, 0.130574, 0.507590, 0.331027, -0.036344
317218.63258350006, 0.016593, 0.071336, 0.169086, 0.609243, 0.321096, -0.021493
317218.6425405834, 0.022091, 0.074341, 0.220315, 0.668902, 0.298230, -0.015231
317218.6520939584, 0.023738, 0.080982, 0.274061, 0.671990, 0.233136, -0.017155
317218.66195629176, 0.025757, 0.096836, 0.333476, 0.617247, 0.133435, -0.023331
317218.6725344167, 0.028136, 0.114561, 0.376632, 0.539207, 0.031502, -0.020282
317218.6824871667, 0.043514, 0.114821, 0.381600, 0.473193, -0.031138, -0.022341
317218.6925190417, 0.059383, 0.107239, 0.348645, 0.419237, -0.066337, -0.035106
317218.7025260001, 0.065834, 0.096651, 0.314297, 0.358921, -0.088174, -0.040489
317218.7115956251, 0.078508, 0.087214, 0.290583, 0.296530, -0.118465, -0.046310
317218.7225788334, 0.079455, 0.083184, 0.267507, 0.254805, -0.135591, -0.051060
317218.73254337505, 0.073332, 0.068364, 0.227649, 0.224017, -0.156500, -0.073724
317218.7425318334, 0.055524, 0.056129, 0.185878, 0.203586, -0.175969, -0.104678
317218.7524727084, 0.040271, 0.051482, 0.149830, 0.186420, -0.188525, -0.135002
317218.7616532501, 0.034343, 0.051027, 0.110135, 0.187350, -0.162731, -0.158645
317218.7726289584, 0.035312, 0.047641, 0.067346, 0.197806, -0.122923, -0.184679
317218.7924537084, 0.028688, 0.048221, 0.023434, 0.174210, -0.151075, -0.229378
317218.7924537084, 0.028688, 0.048221, 0.023434, 0.174210, -0.151075, -0.229378
317218.8116498334, 0.030229, 0.063500, -0.026399, 0.154028, -0.179838, -0.232691
317218.82183141675, 0.007532, 0.075803, -0.045174, 0.108984, -0.196049, -0.233537
317218.82183141675, 0.007532, 0.075803, -0.045174, 0.108984, -0.196049, -0.233537
317218.8325734584, -0.013491, 0.083360, -0.042039, 0.031880, -0.230787, -0.239666
317218.8524654584, -0.043540, 0.074199, -0.051820, -0.173707, -0.242060, -0.262389
317218.86176987505, -0.033640, 0.054258, -0.082889, -0.257898, -0.214447, -0.273069
317218.87248079176, -0.017500, 0.037285, -0.120377, -0.320281, -0.186272, -0.274985
317218.88198625005, 0.001451, 0.031041, -0.146124, -0.368821, -0.168952, -0.256319
317218.8926308334, 0.015913, 0.039720, -0.168459, -0.423699, -0.172606, -0.203583
317218.90257612505, 0.016360, 0.058673, -0.169025, -0.516066, -0.240205, -0.131886
317218.91174525005, -0.004060, 0.092438, -0.142140, -0.660648, -0.372963, -0.056251
317218.9225442917, -0.040485, 0.118974, -0.125068, -0.798630, -0.491272, 0.002221
317218.9325225417, -0.078071, 0.120737, -0.169004, -0.840826, -0.491206, 0.030733
317218.9425420001, -0.107959, 0.093627, -0.282870, -0.747499, -0.298631, 0.041793
317218.95252979174, -0.124374, 0.062571, -0.415088, -0.564751, 0.005810, 0.051093
317218.96189087507, -0.116879, 0.047939, -0.479778, -0.354358, 0.312699, 0.065866
317218.9725677084, -0.099050, 0.046957, -0.451792, -0.175468, 0.504037, 0.085304
317218.9825349584, -0.081124, 0.063778, -0.337735, -0.045523, 0.568544, 0.116388
317218.9925247084, -0.061499, 0.078803, -0.202467, 0.065313, 0.549321, 0.148575
317219.00251212507, -0.057388, 0.081664, -0.103404, 0.161339, 0.489214, 0.170617
317219.0118840834, -0.070262, 0.077355, -0.030488, 0.212746, 0.393238, 0.165952
317219.02256729174, -0.087499, 0.068453, 0.056473, 0.171181, 0.226637, 0.122567
317219.0425391251, -0.137076, 0.032325, 0.234622, -0.167408, -0.234709, -0.075553
317219.05249375006, -0.158720, 0.011650, 0.276209, -0.414987, -0.433435, -0.209471
317219.06183479173, -0.175108, -0.001466, 0.270471, -0.650058, -0.531213, -0.344230
317219.0716688334, -0.183294, -0.014111, 0.203187, -0.830174, -0.508279, -0.468364
317219.0825077084, -0.187661, -0.025524, 0.102945, -0.961789, -0.370176, -0.568482
317219.09235804173, -0.186569, -0.025921, 0.022613, -1.054543, -0.160692, -0.631385
317219.1025079584, -0.165790, -0.021223, -0.023377, -1.088791, 0.073045, -0.658426
317219.1119379167, -0.131692, -0.023249, -0.053210, -1.042101, 0.292132, -0.654362
317219.12252679176, -0.097261, -0.028059, -0.069273, -0.919644, 0.476199, -0.629777
317219.13254162506, -0.071955, -0.028895, -0.060276, -0.760993, 0.591991, -0.588961
317219.1426108751, -0.054901, -0.030214, -0.017713, -0.597586, 0.628496, -0.529550
317219.1525485417, -0.042285, -0.024298, 0.049868, -0.425721, 0.588583, -0.455951
317219.16189975006, -0.038243, -0.019400, 0.113134, -0.246135, 0.498993, -0.382987
317219.1725185834, -0.035468, -0.023063, 0.170586, -0.081480, 0.362310, -0.323200
317219.18244162505, -0.029801, -0.030771, 0.229093, 0.050621, 0.179332, -0.282085
317219.1924397084, -0.022242, -0.041644, 0.284455, 0.126086, -0.022636, -0.261382
317219.20252275007, -0.020296, -0.050954, 0.327376, 0.134120, -0.207534, -0.250452
317219.2120397084, -0.016941, -0.061071, 0.345706, 0.101178, -0.349318, -0.250214
317219.2224425834, -0.016104, -0.070672, 0.324964, 0.052097, -0.407713, -0.250318
317219.2325791667, -0.012710, -0.078763, 0.273353, -0.008105, -0.394901, -0.243961
317219.2425275834, -0.004212, -0.085032, 0.233328, -0.109336, -0.393978, -0.235677
317219.25244837505, 0.001746, -0.078622, 0.216233, -0.227217, -0.422999, -0.226781
317219.2620485834, 0.012413, -0.079311, 0.178580, -0.303272, -0.409066, -0.209034
317219.2824433751, 0.028603, -0.105728, 0.002216, -0.262678, -0.191491, -0.187928
317219.2824433751, 0.028603, -0.105728, 0.002216, -0.262678, -0.191491, -0.187928
317219.3025157084, 0.024215, -0.136027, -0.139278, -0.061360, 0.118822, -0.188262
317219.3120762084, 0.026041, -0.140483, -0.164527, 0.050441, 0.230627, -0.197158
317219.32244166674, 0.021128, -0.130888, -0.162764, 0.144017, 0.278037, -0.199497
317219.32244166674, 0.021128, -0.130888, -0.162764, 0.144017, 0.278037, -0.199497
317219.34253804176, 0.031111, -0.092081, -0.110444, 0.263760, 0.246662, -0.126626
317219.35251779173, 0.042407, -0.068036, -0.089737, 0.293346, 0.193041, -0.059924
317219.36213912506, 0.047370, -0.054922, -0.076890, 0.319351, 0.139362, 0.005554
317219.3725150834, 0.053145, -0.055227, -0.080696, 0.339356, 0.087209, 0.063221
317219.38245837507, 0.057523, -0.061554, -0.089380, 0.353122, 0.051699, 0.126959
317219.39252379176, 0.076384, -0.071337, -0.101160, 0.370589, 0.032596, 0.206639
317219.4025095001, 0.107389, -0.087296, -0.113208, 0.395060, -0.005415, 0.294016
317219.4122363751, 0.131059, -0.098559, -0.109035, 0.398378, -0.094344, 0.375856
317219.4225246251, 0.134288, -0.100898, -0.089561, 0.356116, -0.212764, 0.445241
317219.4325427084, 0.118070, -0.101577, -0.067091, 0.248003, -0.359064, 0.502065
317219.4425903334, 0.080881, -0.095400, -0.054693, 0.075842, -0.555921, 0.528626
317219.4525857084, 0.015939, -0.081708, -0.066503, -0.141084, -0.696159, 0.511396
317219.4622327501, -0.060284, -0.082064, -0.132408, -0.346437, -0.691037, 0.445199
317219.4725055834, -0.123994, -0.092848, -0.251611, -0.476403, -0.530330, 0.347409
317219.4825289584, -0.154169, -0.096677, -0.381708, -0.473217, -0.252123, 0.253789
317219.49248116673, -0.144082, -0.085485, -0.512963, -0.303110, 0.064702, 0.200039
317219.5122753334, -0.043038, 0.004600, -0.592315, 0.284749, 0.445914, 0.273847
317219.5217915834, 0.022919, 0.063234, -0.479388, 0.559034, 0.440357, 0.388283
317219.53252216673, 0.074331, 0.103425, -0.349653, 0.789630, 0.372543, 0.517685
317219.54261625005, 0.102140, 0.127412, -0.233061, 0.945001, 0.295931, 0.630077
317219.5516387084, 0.105236, 0.134368, -0.116536, 0.994542, 0.199913, 0.705406
317219.5622832501, 0.098745, 0.118817, 0.001139, 0.953743, 0.090761, 0.734897
317219.5725136251, 0.083568, 0.086832, 0.094282, 0.844612, 0.001135, 0.707298
317219.58256591676, 0.060616, 0.052404, 0.156227, 0.687215, -0.085710, 0.628266
317219.5925672501, 0.042381, 0.019483, 0.196567, 0.511941, -0.157478, 0.513493
317219.60252187506, 0.027919, -0.005306, 0.210475, 0.329159, -0.188224, 0.386844
317219.6123437501, 0.013173, -0.016999, 0.205382, 0.238164, -0.191785, 0.322500
317219.62258379173, 0.003750, -0.010139, 0.188673, -0.011093, -0.160169, 0.157606
317219.6325967917, -0.006192, 0.003734, 0.160564, -0.139112, -0.106809, 0.065164
317219.64254275005, -0.011271, 0.016447, 0.126365, -0.224180, -0.044532, -0.009033
317219.6526843334, -0.005942, 0.028303, 0.091795, -0.268015, 0.023348, -0.064787
317219.6623957084, 0.001098, 0.036442, 0.061885, -0.268878, 0.097274, -0.094007
317219.67245450005, 0.015231, 0.048602, 0.037192, -0.226020, 0.181251, -0.092454
317219.68250279175, 0.027332, 0.060724, 0.017653, -0.152754, 0.262754, -0.067437
317219.6923025001, 0.028434, 0.073293, 0.011969, -0.062609, 0.333628, -0.025590
317219.71247787506, 0.027412, 0.085104, 0.043292, 0.155628, 0.445542, 0.083085
317219.7224835834, 0.022345, 0.085475, 0.069483, 0.275008, 0.469071, 0.124456
317219.7325395417, 0.013876, 0.086435, 0.105952, 0.385814, 0.476894, 0.155223
317219.74210766674, 0.011564, 0.077396, 0.148355, 0.437769, 0.466502, 0.163192
317219.7524667917, 0.007857, 0.078648, 0.194640, 0.552755, 0.405992, 0.177433
317219.7624531667, 0.010035, 0.072423, 0.239266, 0.602151, 0.350200, 0.180288
317219.7724562501, 0.018374, 0.070227, 0.279186, 0.624449, 0.288470, 0.170293
317219.78249291674, 0.019645, 0.069810, 0.312643, 0.618082, 0.223804, 0.152117
317219.79252762505, 0.015049, 0.071836, 0.340401, 0.573482, 0.173272, 0.128176
317219.80252112506, 0.014076, 0.070146, 0.364859, 0.497563, 0.117977, 0.102902
317219.81248733343, 0.011581, 0.068575, 0.381180, 0.417782, 0.061165, 0.072114
317219.8225762084, 0.007525, 0.063840, 0.376682, 0.334377, 0.016375, 0.032754
317219.8325827084, 0.000143, 0.056167, 0.357595, 0.245739, -0.017911, -0.017631
317219.8425305834, -0.002569, 0.044811, 0.334251, 0.170462, -0.049843, -0.072271
317219.8524502084, 0.000854, 0.033378, 0.298393, 0.145837, -0.063527, -0.097115
317219.8624677501, 0.005384, 0.025654, 0.249846, 0.118093, -0.093732, -0.141294
317219.8725107501, 0.007327, 0.027093, 0.205574, 0.102052, -0.127473, -0.182783
317219.8815883334, 0.012729, 0.036059, 0.171597, 0.087507, -0.169929, -0.209727
317219.89250929176, 0.016065, 0.040037, 0.135879, 0.079701, -0.208763, -0.228160
317219.90250479174, 0.008061, 0.045689, 0.099835, 0.070282, -0.251178, -0.252966
317219.9125713751, 0.000861, 0.053833, 0.071306, 0.044689, -0.302161, -0.276201
317219.9225267084, 0.001919, 0.058760, 0.034786, 0.018923, -0.341846, -0.295985
317219.9325057917, 0.001139, 0.065271, -0.003769, -0.018407, -0.368577, -0.316496
317219.95256650005, -0.016128, 0.083031, -0.061986, -0.160647, -0.386564, -0.354039
317219.9625213334, -0.014329, 0.083900, -0.107170, -0.241885, -0.338058, -0.357552
317219.9625213334, -0.014329, 0.083900, -0.107170, -0.241885, -0.338058, -0.357552
317219.9825134584, 0.020831, 0.073091, -0.167427, -0.432105, -0.243061, -0.339589
317219.9925118334, 0.023721, 0.082509, -0.156707, -0.578596, -0.305032, -0.333513
317220.00252941676, 0.015837, 0.100196, -0.154743, -0.749032, -0.422177, -0.308850
317220.01254241675, 0.009815, 0.115458, -0.191201, -0.906038, -0.529288, -0.264026
317220.0224943334, -0.004974, 0.124871, -0.258632, -1.021114, -0.606372, -0.210069
317220.0325281667, -0.027063, 0.124049, -0.351252, -1.067527, -0.615129, -0.156386
317220.04251804174, -0.053873, 0.115395, -0.475765, -1.030985, -0.463217, -0.096314
317220.05257237505, -0.070276, 0.103573, -0.588326, -0.918770, -0.158018, -0.025623
317220.06252354174, -0.065589, 0.096629, -0.659370, -0.737323, 0.264702, 0.081495
317220.0725133751, -0.044773, 0.099028, -0.670711, -0.500169, 0.695461, 0.227790
317220.0825213334, -0.018242, 0.099970, -0.595896, -0.230548, 1.017448, 0.385979
317220.0925080001, 0.005600, 0.086443, -0.456784, 0.045780, 1.156911, 0.520785
317220.1025310001, 0.006480, 0.074153, -0.305522, 0.310923, 1.145589, 0.632172
317220.11252429173, -0.000575, 0.056462, -0.160470, 0.550386, 1.008027, 0.720421
317220.1225138334, -0.017515, 0.030510, -0.021906, 0.718130, 0.760241, 0.752760
317220.13258841675, -0.050500, 0.011914, 0.111290, 0.770050, 0.410294, 0.718735
317220.1425100834, -0.075636, -0.031167, 0.232995, 0.693994, -0.012271, 0.607435
317220.1525170001, -0.110309, -0.076552, 0.300074, 0.518607, -0.436651, 0.418742
317220.1624726251, -0.147397, -0.108198, 0.300596, 0.275192, -0.760001, 0.175129
317220.17202691676, -0.182780, -0.123357, 0.241527, -0.010929, -0.886090, -0.076956
317220.1824690834, -0.205507, -0.121429, 0.130351, -0.300258, -0.815056, -0.299997
317220.1919749584, -0.204013, -0.101856, 0.018001, -0.565308, -0.591843, -0.481405
317220.2025090001, -0.183944, -0.075767, -0.074684, -0.776351, -0.277825, -0.612910
317220.22245725006, -0.087279, -0.016749, -0.198835, -0.921166, 0.411670, -0.665036
317220.2325171251, -0.034293, 0.007734, -0.226528, -0.823646, 0.687264, -0.601443
317220.24259766674, 0.002665, 0.031618, -0.213229, -0.645461, 0.867059, -0.496530
317220.2525814584, 0.023465, 0.049719, -0.161674, -0.414627, 0.940463, -0.362183
317220.26245191676, 0.026263, 0.066378, -0.085244, -0.161510, 0.919065, -0.212847
317220.2726349584, 0.016644, 0.075185, -0.004189, 0.095375, 0.841623, -0.073323
317220.2824642917, 0.005204, 0.070641, 0.079099, 0.323538, 0.736675, 0.043956
317220.2920500417, -0.001918, 0.056181, 0.164256, 0.504206, 0.602726, 0.132072
317220.30249950005, -0.007787, 0.037185, 0.242578, 0.630649, 0.445937, 0.187982
317220.31251375005, -0.015313, 0.021836, 0.316842, 0.699788, 0.263941, 0.209194
317220.32243616675, -0.016057, 0.011592, 0.376207, 0.702448, 0.084353, 0.215480
317220.33251637506, -0.017755, 0.005155, 0.405711, 0.654453, -0.047930, 0.207072
317220.3425948751, -0.019551, -0.000655, 0.410611, 0.561093, -0.113150, 0.201385
317220.3524430834, -0.017026, -0.010047, 0.394355, 0.448806, -0.111912, 0.196364
317220.36243275006, -0.013403, -0.018629, 0.363515, 0.329683, -0.052567, 0.195807
317220.37264500005, -0.007635, -0.024352, 0.337109, 0.203880, 0.031065, 0.196281
317220.38239275006, -0.000181, -0.029858, 0.317395, 0.075269, 0.115374, 0.199734
317220.3921376251, 0.000920, -0.041249, 0.299359, -0.047414, 0.187687, 0.192854
317220.4025032917, 0.004922, -0.051302, 0.277434, -0.143660, 0.227482, 0.193807
317220.41252725007, 0.018261, -0.067174, 0.243818, -0.188595, 0.235410, 0.195266
317220.4224285001, 0.035209, -0.085484, 0.205153, -0.187299, 0.197727, 0.193389
317220.4425290417, 0.074769, -0.111342, 0.126636, -0.097199, 0.024700, 0.174471
317220.4524765834, 0.086514, -0.108289, 0.086205, -0.049889, -0.071879, 0.172853
